imu9250 monitor started
time, gx, gy, gz, mx, my, mz, ax, ay, az, comp
0,  0.000, 0.000, 0.000, 0.000, 0.000, 0.000, 0.000, 0.000, 0.000, 90.000 
11,  0.000, 0.000, 0.000, 0.000, 0.000, 0.000, 0.000, 0.000, 0.000, 90.000 
22,  0.000, 0.000, 0.000, 0.000, 0.000, 0.000, 0.000, 0.000, 0.000, 90.000 
33,  0.000, 0.000, 0.000, 0.000, 0.000, 0.000, 0.000, 0.000, 0.000, 90.000 
44,  0.000, 0.000, 0.000, 0.000, 0.000, 0.000, 0.000, 0.000, 0.000, 90.000 
55,  0.000, 0.000, 0.000, 0.000, 0.000, 0.000, 0.000, 0.000, 0.000, 90.000 
66,  0.000, 0.000, 0.000, 0.000, 0.000, 0.000, 0.000, 0.000, 0.000, 90.000 
78,  0.000, 0.000, 0.000, 0.000, 0.000, 0.000, 0.000, 0.000, 0.000, 90.000 
89,  0.000, 0.000, 0.000, 0.000, 0.000, 0.000, 0.000, 0.000, 0.000, 90.000 
100,  0.000, 0.000, 0.000, 0.000, 0.000, 0.000, 0.000, 0.000, 0.000, 90.000 
117, -0.464, 0.229, 0.334, 9.785, 1.348, 3.457, 0.002,-0.003, 0.206, 172.158 
128, -0.464, 0.229, 0.334, 9.785, 1.348, 3.457, 0.002,-0.003, 0.206, 172.158 
139, -0.464, 0.229, 0.334, 9.785, 1.348, 3.457, 0.002,-0.003, 0.206, 172.158 
150, -0.464, 0.229, 0.334, 9.785, 1.348, 3.457, 0.002,-0.003, 0.206, 172.158 
161, -0.464, 0.229, 0.334, 9.785, 1.348, 3.457, 0.002,-0.003, 0.206, 172.158 
172, -0.464, 0.229, 0.334, 9.785, 1.348, 3.457, 0.002,-0.003, 0.206, 172.158 
183, -0.464, 0.229, 0.334, 9.785, 1.348, 3.457, 0.002,-0.003, 0.206, 172.158 
194, -0.464, 0.229, 0.334, 9.785, 1.348, 3.457, 0.002,-0.003, 0.206, 172.158 
205, -0.464, 0.229, 0.334, 9.785, 1.348, 3.457, 0.002,-0.003, 0.206, 172.158 
216, -0.464, 0.229, 0.334, 9.785, 1.348, 3.457, 0.002,-0.003, 0.206, 172.158 
229, -0.904, 0.365, 0.563, 17.555, 2.660, 6.164, 0.005,-0.004, 0.374, 171.383 
240, -0.904, 0.365, 0.563, 17.555, 2.660, 6.164, 0.005,-0.004, 0.374, 171.383 
251, -0.904, 0.365, 0.563, 17.555, 2.660, 6.164, 0.005,-0.004, 0.374, 171.383 
262, -0.904, 0.365, 0.563, 17.555, 2.660, 6.164, 0.005,-0.004, 0.374, 171.383 
273, -0.904, 0.365, 0.563, 17.555, 2.660, 6.164, 0.005,-0.004, 0.374, 171.383 
285, -0.904, 0.365, 0.563, 17.555, 2.660, 6.164, 0.005,-0.004, 0.374, 171.383 
297, -0.904, 0.365, 0.563, 17.555, 2.660, 6.164, 0.005,-0.004, 0.374, 171.383 
308, -0.904, 0.365, 0.563, 17.555, 2.660, 6.164, 0.005,-0.004, 0.374, 171.383 
319, -0.904, 0.365, 0.563, 17.555, 2.660, 6.164, 0.005,-0.004, 0.374, 171.383 
331, -0.904, 0.365, 0.563, 17.555, 2.660, 6.164, 0.005,-0.004, 0.374, 171.383 
342, -1.254, 0.461, 0.793, 23.683, 3.564, 8.476, 0.006,-0.006, 0.505, 171.442 
353, -1.254, 0.461, 0.793, 23.683, 3.564, 8.476, 0.006,-0.006, 0.505, 171.442 
364, -1.254, 0.461, 0.793, 23.683, 3.564, 8.476, 0.006,-0.006, 0.505, 171.442 
375, -1.254, 0.461, 0.793, 23.683, 3.564, 8.476, 0.006,-0.006, 0.505, 171.442 
386, -1.254, 0.461, 0.793, 23.683, 3.564, 8.476, 0.006,-0.006, 0.505, 171.442 
397, -1.254, 0.461, 0.793, 23.683, 3.564, 8.476, 0.006,-0.006, 0.505, 171.442 
409, -1.254, 0.461, 0.793, 23.683, 3.564, 8.476, 0.006,-0.006, 0.505, 171.442 
420, -1.254, 0.461, 0.793, 23.683, 3.564, 8.476, 0.006,-0.006, 0.505, 171.442 
431, -1.254, 0.461, 0.793, 23.683, 3.564, 8.476, 0.006,-0.006, 0.505, 171.442 
442, -1.254, 0.461, 0.793, 23.683, 3.564, 8.476, 0.006,-0.006, 0.505, 171.442 
453, -1.513, 0.563, 1.000, 28.703, 4.404, 10.561, 0.008,-0.007, 0.613, 171.277 
464, -1.513, 0.563, 1.000, 28.703, 4.404, 10.561, 0.008,-0.007, 0.613, 171.277 
475, -1.513, 0.563, 1.000, 28.703, 4.404, 10.561, 0.008,-0.007, 0.613, 171.277 
486, -1.513, 0.563, 1.000, 28.703, 4.404, 10.561, 0.008,-0.007, 0.613, 171.277 
497, -1.513, 0.563, 1.000, 28.703, 4.404, 10.561, 0.008,-0.007, 0.613, 171.277 
508, -1.513, 0.563, 1.000, 28.703, 4.404, 10.561, 0.008,-0.007, 0.613, 171.277 
519, -1.513, 0.563, 1.000, 28.703, 4.404, 10.561, 0.008,-0.007, 0.613, 171.277 
531, -1.513, 0.563, 1.000, 28.703, 4.404, 10.561, 0.008,-0.007, 0.613, 171.277 
542, -1.513, 0.563, 1.000, 28.703, 4.404, 10.561, 0.008,-0.007, 0.613, 171.277 
553, -1.513, 0.563, 1.000, 28.703, 4.404, 10.561, 0.008,-0.007, 0.613, 171.277 
566, -1.724, 0.664, 1.168, 32.630, 5.398, 12.199, 0.010,-0.008, 0.697, 170.607 
577, -1.724, 0.664, 1.168, 32.630, 5.398, 12.199, 0.010,-0.008, 0.697, 170.607 
588, -1.724, 0.664, 1.168, 32.630, 5.398, 12.199, 0.010,-0.008, 0.697, 170.607 
599, -1.724, 0.664, 1.168, 32.630, 5.398, 12.199, 0.010,-0.008, 0.697, 170.607 
610, -1.724, 0.664, 1.168, 32.630, 5.398, 12.199, 0.010,-0.008, 0.697, 170.607 
621, -1.724, 0.664, 1.168, 32.630, 5.398, 12.199, 0.010,-0.008, 0.697, 170.607 
632, -1.724, 0.664, 1.168, 32.630, 5.398, 12.199, 0.010,-0.008, 0.697, 170.607 
643, -1.724, 0.664, 1.168, 32.630, 5.398, 12.199, 0.010,-0.008, 0.697, 170.607 
654, -1.724, 0.664, 1.168, 32.630, 5.398, 12.199, 0.010,-0.008, 0.697, 170.607 
665, -1.724, 0.664, 1.168, 35.831, 5.842, 13.333, 0.010,-0.008, 0.697, 170.740 
676, -1.888, 0.743, 1.198, 35.831, 5.842, 13.333, 0.012,-0.009, 0.765, 170.740 
687, -1.888, 0.743, 1.198, 35.831, 5.842, 13.333, 0.012,-0.009, 0.765, 170.740 
699, -1.888, 0.743, 1.198, 35.831, 5.842, 13.333, 0.012,-0.009, 0.765, 170.740 
710, -1.888, 0.743, 1.198, 35.831, 5.842, 13.333, 0.012,-0.009, 0.765, 170.740 
721, -1.888, 0.743, 1.198, 35.831, 5.842, 13.333, 0.012,-0.009, 0.765, 170.740 
732, -1.888, 0.743, 1.198, 35.831, 5.842, 13.333, 0.012,-0.009, 0.765, 170.740 
743, -1.888, 0.743, 1.198, 35.831, 5.842, 13.333, 0.012,-0.009, 0.765, 170.740 
754, -1.888, 0.743, 1.198, 35.831, 5.842, 13.333, 0.012,-0.009, 0.765, 170.740 
765, -1.888, 0.743, 1.198, 35.831, 5.842, 13.333, 0.012,-0.009, 0.765, 170.740 
776, -1.888, 0.743, 1.198, 38.333, 6.197, 14.182, 0.012,-0.009, 0.765, 170.817 
789, -1.960, 0.791, 1.314, 38.333, 6.197, 14.182, 0.012,-0.010, 0.819, 170.817 
800, -1.960, 0.791, 1.314, 38.333, 6.197, 14.182, 0.012,-0.010, 0.819, 170.817 
811, -1.960, 0.791, 1.314, 38.333, 6.197, 14.182, 0.012,-0.010, 0.819, 170.817 
822, -1.960, 0.791, 1.314, 38.333, 6.197, 14.182, 0.012,-0.010, 0.819, 170.817 
833, -1.960, 0.791, 1.314, 38.333, 6.197, 14.182, 0.012,-0.010, 0.819, 170.817 
844, -1.960, 0.791, 1.314, 38.333, 6.197, 14.182, 0.012,-0.010, 0.819, 170.817 
855, -1.960, 0.791, 1.314, 38.333, 6.197, 14.182, 0.012,-0.010, 0.819, 170.817 
866, -1.960, 0.791, 1.314, 38.333, 6.197, 14.182, 0.012,-0.010, 0.819, 170.817 
877, -1.960, 0.791, 1.314, 38.333, 6.197, 14.182, 0.012,-0.010, 0.819, 170.817 
888, -2.050, 0.822, 1.326, 40.335, 6.481, 14.744, 0.012,-0.010, 0.819, 170.872 
899, -2.050, 0.822, 1.326, 40.335, 6.481, 14.744, 0.013,-0.011, 0.863, 170.872 
910, -2.050, 0.822, 1.326, 40.335, 6.481, 14.744, 0.013,-0.011, 0.863, 170.872 
921, -2.050, 0.822, 1.326, 40.335, 6.481, 14.744, 0.013,-0.011, 0.863, 170.872 
932, -2.050, 0.822, 1.326, 40.335, 6.481, 14.744, 0.013,-0.011, 0.863, 170.872 
943, -2.050, 0.822, 1.326, 40.335, 6.481, 14.744, 0.013,-0.011, 0.863, 170.872 
954, -2.050, 0.822, 1.326, 40.335, 6.481, 14.744, 0.013,-0.011, 0.863, 170.872 
966, -2.050, 0.822, 1.326, 40.335, 6.481, 14.744, 0.013,-0.011, 0.863, 170.872 
977, -2.050, 0.822, 1.326, 40.335, 6.481, 14.744, 0.013,-0.011, 0.863, 170.872 
988, -2.050, 0.822, 1.326, 40.335, 6.481, 14.744, 0.013,-0.011, 0.863, 170.872 
1000, -2.182, 0.852, 1.334, 41.995, 6.708, 15.135, 0.014,-0.011, 0.899, 170.924 
1011, -2.182, 0.852, 1.334, 41.995, 6.708, 15.135, 0.014,-0.011, 0.899, 170.924 
1022, -2.182, 0.852, 1.334, 41.995, 6.708, 15.135, 0.014,-0.011, 0.899, 170.924 
1033, -2.182, 0.852, 1.334, 41.995, 6.708, 15.135, 0.014,-0.011, 0.899, 170.924 
1044, -2.182, 0.852, 1.334, 41.995, 6.708, 15.135, 0.014,-0.011, 0.899, 170.924 
1055, -2.182, 0.852, 1.334, 41.995, 6.708, 15.135, 0.014,-0.011, 0.899, 170.924 
1066, -2.182, 0.852, 1.334, 41.995, 6.708, 15.135, 0.014,-0.011, 0.899, 170.924 
1077, -2.182, 0.852, 1.334, 41.995, 6.708, 15.135, 0.014,-0.011, 0.899, 170.924 
1089, -2.182, 0.852, 1.334, 41.995, 6.708, 15.135, 0.014,-0.011, 0.899, 170.924 
1100, -2.182, 0.852, 1.334, 41.995, 6.708, 15.135, 0.014,-0.011, 0.899, 170.924 
1111, -2.272, 0.883, 1.356, 43.323, 6.890, 15.448, 0.014,-0.011, 0.926, 170.963 
1122, -2.272, 0.883, 1.356, 43.323, 6.890, 15.448, 0.014,-0.011, 0.926, 170.963 
1133, -2.272, 0.883, 1.356, 43.323, 6.890, 15.448, 0.014,-0.011, 0.926, 170.963 
1144, -2.272, 0.883, 1.356, 43.323, 6.890, 15.448, 0.014,-0.011, 0.926, 170.963 
1156, -2.272, 0.883, 1.356, 43.323, 6.890, 15.448, 0.014,-0.011, 0.926, 170.963 
1167, -2.272, 0.883, 1.356, 43.323, 6.890, 15.448, 0.014,-0.011, 0.926, 170.963 
1178, -2.272, 0.883, 1.356, 43.323, 6.890, 15.448, 0.014,-0.011, 0.926, 170.963 
1188, -2.272, 0.883, 1.356, 43.323, 6.890, 15.448, 0.014,-0.011, 0.926, 170.963 
1199, -2.272, 0.883, 1.356, 43.323, 6.890, 15.448, 0.014,-0.011, 0.926, 170.963 
1210, -2.272, 0.883, 1.356, 43.323, 6.890, 15.448, 0.014,-0.011, 0.926, 170.963 
1223, -2.315, 0.898, 1.445, 44.414, 6.889, 15.904, 0.014,-0.012, 0.947, 171.183 
1234, -2.315, 0.898, 1.445, 44.414, 6.889, 15.904, 0.014,-0.012, 0.947, 171.183 
1245, -2.315, 0.898, 1.445, 44.414, 6.889, 15.904, 0.014,-0.012, 0.947, 171.183 
1256, -2.315, 0.898, 1.445, 44.414, 6.889, 15.904, 0.014,-0.012, 0.947, 171.183 
1267, -2.315, 0.898, 1.445, 44.414, 6.889, 15.904, 0.014,-0.012, 0.947, 171.183 
1278, -2.315, 0.898, 1.445, 44.414, 6.889, 15.904, 0.014,-0.012, 0.947, 171.183 
1289, -2.315, 0.898, 1.445, 44.414, 6.889, 15.904, 0.014,-0.012, 0.947, 171.183 
1301, -2.315, 0.898, 1.445, 44.414, 6.889, 15.904, 0.014,-0.012, 0.947, 171.183 
1312, -2.315, 0.898, 1.445, 44.414, 6.889, 15.904, 0.014,-0.012, 0.947, 171.183 
1324, -2.315, 0.898, 1.445, 44.414, 6.889, 15.904, 0.014,-0.012, 0.947, 171.183 
1336, -2.351, 0.905, 1.436, 45.112, 6.888, 16.385, 0.014,-0.012, 0.964, 171.318 
1347, -2.351, 0.905, 1.436, 45.112, 6.888, 16.385, 0.014,-0.012, 0.964, 171.318 
1358, -2.351, 0.905, 1.436, 45.112, 6.888, 16.385, 0.014,-0.012, 0.964, 171.318 
1369, -2.351, 0.905, 1.436, 45.112, 6.888, 16.385, 0.014,-0.012, 0.964, 171.318 
1380, -2.351, 0.905, 1.436, 45.112, 6.888, 16.385, 0.014,-0.012, 0.964, 171.318 
1392, -2.351, 0.905, 1.436, 45.112, 6.888, 16.385, 0.014,-0.012, 0.964, 171.318 
1403, -2.351, 0.905, 1.436, 45.112, 6.888, 16.385, 0.014,-0.012, 0.964, 171.318 
1415, -2.351, 0.905, 1.436, 45.112, 6.888, 16.385, 0.014,-0.012, 0.964, 171.318 
1426, -2.351, 0.905, 1.436, 45.112, 6.888, 16.385, 0.014,-0.012, 0.964, 171.318 
1437, -2.378, 0.951, 1.468, 46.080, 7.005, 16.595, 0.014,-0.012, 0.964, 171.356 
1448, -2.378, 0.951, 1.468, 46.080, 7.005, 16.595, 0.014,-0.012, 0.978, 171.356 
1459, -2.378, 0.951, 1.468, 46.080, 7.005, 16.595, 0.014,-0.012, 0.978, 171.356 
1470, -2.378, 0.951, 1.468, 46.080, 7.005, 16.595, 0.014,-0.012, 0.978, 171.356 
1481, -2.378, 0.951, 1.468, 46.080, 7.005, 16.595, 0.014,-0.012, 0.978, 171.356 
1493, -2.378, 0.951, 1.468, 46.080, 7.005, 16.595, 0.014,-0.012, 0.978, 171.356 
1504, -2.378, 0.951, 1.468, 46.080, 7.005, 16.595, 0.014,-0.012, 0.978, 171.356 
1515, -2.378, 0.951, 1.468, 46.080, 7.005, 16.595, 0.014,-0.012, 0.978, 171.356 
1526, -2.378, 0.951, 1.468, 46.080, 7.005, 16.595, 0.014,-0.012, 0.978, 171.356 
1537, -2.378, 0.951, 1.468, 46.080, 7.005, 16.595, 0.014,-0.012, 0.978, 171.356 
1549, -2.429, 0.923, 1.515, 46.679, 6.922, 16.938, 0.015,-0.012, 0.990, 171.565 
1560, -2.429, 0.923, 1.515, 46.679, 6.922, 16.938, 0.015,-0.012, 0.990, 171.565 
1571, -2.429, 0.923, 1.515, 46.679, 6.922, 16.938, 0.015,-0.012, 0.990, 171.565 
1582, -2.429, 0.923, 1.515, 46.679, 6.922, 16.938, 0.015,-0.012, 0.990, 171.565 
1593, -2.429, 0.923, 1.515, 46.679, 6.922, 16.938, 0.015,-0.012, 0.990, 171.565 
1604, -2.429, 0.923, 1.515, 46.679, 6.922, 16.938, 0.015,-0.012, 0.990, 171.565 
1616, -2.429, 0.923, 1.515, 46.679, 6.922, 16.938, 0.015,-0.012, 0.990, 171.565 
1627, -2.429, 0.923, 1.515, 46.679, 6.922, 16.938, 0.015,-0.012, 0.990, 171.565 
1638, -2.429, 0.923, 1.515, 46.679, 6.922, 16.938, 0.015,-0.012, 0.990, 171.565 
1649, -2.429, 0.923, 1.515, 46.679, 6.922, 16.938, 0.015,-0.012, 0.990, 171.565 
1660, -2.451, 0.946, 1.529, 46.806, 6.915, 17.213, 0.015,-0.012, 1.000, 171.596 
1671, -2.451, 0.946, 1.529, 46.806, 6.915, 17.213, 0.015,-0.012, 1.000, 171.596 
1682, -2.451, 0.946, 1.529, 46.806, 6.915, 17.213, 0.015,-0.012, 1.000, 171.596 
1693, -2.451, 0.946, 1.529, 46.806, 6.915, 17.213, 0.015,-0.012, 1.000, 171.596 
1704, -2.451, 0.946, 1.529, 46.806, 6.915, 17.213, 0.015,-0.012, 1.000, 171.596 
1715, -2.451, 0.946, 1.529, 46.806, 6.915, 17.213, 0.015,-0.012, 1.000, 171.596 
1726, -2.451, 0.946, 1.529, 46.806, 6.915, 17.213, 0.015,-0.012, 1.000, 171.596 
1737, -2.451, 0.946, 1.529, 46.806, 6.915, 17.213, 0.015,-0.012, 1.000, 171.596 
1749, -2.451, 0.946, 1.529, 46.806, 6.915, 17.213, 0.015,-0.012, 1.000, 171.596 
1760, -2.451, 0.946, 1.529, 46.806, 6.915, 17.213, 0.015,-0.012, 1.000, 171.596 
1771, -2.445, 0.960, 1.533, 47.142, 7.202, 17.315, 0.015,-0.012, 1.006, 171.314 
1782, -2.445, 0.960, 1.533, 47.142, 7.202, 17.315, 0.015,-0.012, 1.006, 171.314 
1793, -2.445, 0.960, 1.533, 47.142, 7.202, 17.315, 0.015,-0.012, 1.006, 171.314 
1804, -2.445, 0.960, 1.533, 47.142, 7.202, 17.315, 0.015,-0.012, 1.006, 171.314 
1815, -2.445, 0.960, 1.533, 47.142, 7.202, 17.315, 0.015,-0.012, 1.006, 171.314 
1826, -2.445, 0.960, 1.533, 47.142, 7.202, 17.315, 0.015,-0.012, 1.006, 171.314 
1838, -2.445, 0.960, 1.533, 47.142, 7.202, 17.315, 0.015,-0.012, 1.006, 171.314 
1849, -2.445, 0.960, 1.533, 47.142, 7.202, 17.315, 0.015,-0.012, 1.006, 171.314 
1860, -2.445, 0.960, 1.533, 47.142, 7.202, 17.315, 0.015,-0.012, 1.006, 171.314 
1871, -2.445, 0.960, 1.533, 47.142, 7.202, 17.315, 0.015,-0.012, 1.006, 171.314 
1882, -2.467, 0.983, 1.579, 47.382, 7.461, 17.251, 0.016,-0.012, 1.013, 171.052 
1893, -2.467, 0.983, 1.579, 47.382, 7.461, 17.251, 0.016,-0.012, 1.013, 171.052 
1904, -2.467, 0.983, 1.579, 47.382, 7.461, 17.251, 0.016,-0.012, 1.013, 171.052 
1915, -2.467, 0.983, 1.579, 47.382, 7.461, 17.251, 0.016,-0.012, 1.013, 171.052 
1926, -2.467, 0.983, 1.579, 47.382, 7.461, 17.251, 0.016,-0.012, 1.013, 171.052 
1937, -2.467, 0.983, 1.579, 47.382, 7.461, 17.251, 0.016,-0.012, 1.013, 171.052 
1948, -2.467, 0.983, 1.579, 47.382, 7.461, 17.251, 0.016,-0.012, 1.013, 171.052 
1960, -2.467, 0.983, 1.579, 47.382, 7.461, 17.251, 0.016,-0.012, 1.013, 171.052 
1971, -2.467, 0.983, 1.579, 47.382, 7.461, 17.251, 0.016,-0.012, 1.013, 171.052 
1983, -2.467, 0.983, 1.579, 47.382, 7.461, 17.251, 0.016,-0.012, 1.013, 171.052 
1994, -2.497, 0.974, 1.602, 47.603, 7.580, 17.287, 0.017,-0.012, 1.018, 170.953 
2005, -2.497, 0.974, 1.602, 47.603, 7.580, 17.287, 0.017,-0.012, 1.018, 170.953 
2016, -2.497, 0.974, 1.602, 47.603, 7.580, 17.287, 0.017,-0.012, 1.018, 170.953 
2027, -2.497, 0.974, 1.602, 47.603, 7.580, 17.287, 0.017,-0.012, 1.018, 170.953 
2038, -2.497, 0.974, 1.602, 47.603, 7.580, 17.287, 0.017,-0.012, 1.018, 170.953 
2049, -2.497, 0.974, 1.602, 47.603, 7.580, 17.287, 0.017,-0.012, 1.018, 170.953 
2060, -2.497, 0.974, 1.602, 47.603, 7.580, 17.287, 0.017,-0.012, 1.018, 170.953 
2071, -2.497, 0.974, 1.602, 47.603, 7.580, 17.287, 0.017,-0.012, 1.018, 170.953 
2084, -2.497, 0.974, 1.602, 47.603, 7.580, 17.287, 0.017,-0.012, 1.018, 170.953 
2095, -2.497, 0.974, 1.602, 47.780, 7.675, 17.316, 0.017,-0.012, 1.018, 170.874 
2106, -2.481, 1.052, 1.593, 47.780, 7.675, 17.316, 0.017,-0.013, 1.021, 170.874 
2117, -2.481, 1.052, 1.593, 47.780, 7.675, 17.316, 0.017,-0.013, 1.021, 170.874 
2128, -2.481, 1.052, 1.593, 47.780, 7.675, 17.316, 0.017,-0.013, 1.021, 170.874 
2139, -2.481, 1.052, 1.593, 47.780, 7.675, 17.316, 0.017,-0.013, 1.021, 170.874 
2150, -2.481, 1.052, 1.593, 47.780, 7.675, 17.316, 0.017,-0.013, 1.021, 170.874 
2162, -2.481, 1.052, 1.593, 47.780, 7.675, 17.316, 0.017,-0.013, 1.021, 170.874 
2173, -2.481, 1.052, 1.593, 47.780, 7.675, 17.316, 0.017,-0.013, 1.021, 170.874 
2184, -2.481, 1.052, 1.593, 47.780, 7.675, 17.316, 0.017,-0.013, 1.021, 170.874 
2195, -2.481, 1.052, 1.593, 47.780, 7.675, 17.316, 0.017,-0.013, 1.021, 170.874 
2206, -2.455, 1.019, 1.561, 48.127, 7.488, 17.310, 0.017,-0.013, 1.021, 171.156 
2217, -2.455, 1.019, 1.561, 48.127, 7.488, 17.310, 0.017,-0.013, 1.025, 171.156 
2228, -2.455, 1.019, 1.561, 48.127, 7.488, 17.310, 0.017,-0.013, 1.025, 171.156 
2239, -2.455, 1.019, 1.561, 48.127, 7.488, 17.310, 0.017,-0.013, 1.025, 171.156 
2250, -2.455, 1.019, 1.561, 48.127, 7.488, 17.310, 0.017,-0.013, 1.025, 171.156 
2261, -2.455, 1.019, 1.561, 48.127, 7.488, 17.310, 0.017,-0.013, 1.025, 171.156 
2272, -2.455, 1.019, 1.561, 48.127, 7.488, 17.310, 0.017,-0.013, 1.025, 171.156 
2284, -2.455, 1.019, 1.561, 48.127, 7.488, 17.310, 0.017,-0.013, 1.025, 171.156 
2296, -2.455, 1.019, 1.561, 48.127, 7.488, 17.310, 0.017,-0.013, 1.025, 171.156 
2309, -2.455, 1.019, 1.561, 48.127, 7.488, 17.310, 0.017,-0.013, 1.025, 171.156 
2321, -2.445, 1.041, 1.586, 48.053, 7.514, 17.188, 0.016,-0.013, 1.028, 171.113 
2332, -2.445, 1.041, 1.586, 48.053, 7.514, 17.188, 0.016,-0.013, 1.028, 171.113 
2343, -2.445, 1.041, 1.586, 48.053, 7.514, 17.188, 0.016,-0.013, 1.028, 171.113 
2354, -2.445, 1.041, 1.586, 48.053, 7.514, 17.188, 0.016,-0.013, 1.028, 171.113 
2365, -2.445, 1.041, 1.586, 48.053, 7.514, 17.188, 0.016,-0.013, 1.028, 171.113 
2376, -2.445, 1.041, 1.586, 48.053, 7.514, 17.188, 0.016,-0.013, 1.028, 171.113 
2387, -2.445, 1.041, 1.586, 48.053, 7.514, 17.188, 0.016,-0.013, 1.028, 171.113 
2398, -2.445, 1.041, 1.586, 48.053, 7.514, 17.188, 0.016,-0.013, 1.028, 171.113 
2409, -2.445, 1.041, 1.586, 48.053, 7.514, 17.188, 0.016,-0.013, 1.028, 171.113 
2421, -2.445, 1.041, 1.586, 48.053, 7.514, 17.188, 0.016,-0.013, 1.028, 171.113 
2433, -2.484, 0.967, 1.603, 48.169, 7.652, 17.149, 0.017,-0.014, 1.031, 170.974 
2444, -2.484, 0.967, 1.603, 48.169, 7.652, 17.149, 0.017,-0.014, 1.031, 170.974 
2455, -2.484, 0.967, 1.603, 48.169, 7.652, 17.149, 0.017,-0.014, 1.031, 170.974 
2466, -2.484, 0.967, 1.603, 48.169, 7.652, 17.149, 0.017,-0.014, 1.031, 170.974 
2477, -2.484, 0.967, 1.603, 48.169, 7.652, 17.149, 0.017,-0.014, 1.031, 170.974 
2488, -2.484, 0.967, 1.603, 48.169, 7.652, 17.149, 0.017,-0.014, 1.031, 170.974 
2499, -2.484, 0.967, 1.603, 48.169, 7.652, 17.149, 0.017,-0.014, 1.031, 170.974 
2510, -2.484, 0.967, 1.603, 48.169, 7.652, 17.149, 0.017,-0.014, 1.031, 170.974 
2521, -2.484, 0.967, 1.603, 48.169, 7.652, 17.149, 0.017,-0.014, 1.031, 170.974 
2534, -2.484, 0.967, 1.603, 48.291, 7.791, 17.264, 0.017,-0.014, 1.031, 170.835 
2545, -2.477, 0.969, 1.615, 48.291, 7.791, 17.264, 0.016,-0.013, 1.032, 170.835 
2556, -2.477, 0.969, 1.615, 48.291, 7.791, 17.264, 0.016,-0.013, 1.032, 170.835 
2567, -2.477, 0.969, 1.615, 48.291, 7.791, 17.264, 0.016,-0.013, 1.032, 170.835 
2578, -2.477, 0.969, 1.615, 48.291, 7.791, 17.264, 0.016,-0.013, 1.032, 170.835 
2589, -2.477, 0.969, 1.615, 48.291, 7.791, 17.264, 0.016,-0.013, 1.032, 170.835 
2600, -2.477, 0.969, 1.615, 48.291, 7.791, 17.264, 0.016,-0.013, 1.032, 170.835 
2611, -2.477, 0.969, 1.615, 48.291, 7.791, 17.264, 0.016,-0.013, 1.032, 170.835 
2622, -2.477, 0.969, 1.615, 48.291, 7.791, 17.264, 0.016,-0.013, 1.032, 170.835 
2633, -2.477, 0.969, 1.615, 48.291, 7.791, 17.264, 0.016,-0.013, 1.032, 170.835 
2645, -2.509, 0.903, 1.622, 48.301, 7.757, 17.444, 0.016,-0.013, 1.032, 170.877 
2656, -2.509, 0.903, 1.622, 48.301, 7.757, 17.444, 0.015,-0.013, 1.033, 170.877 
2667, -2.509, 0.903, 1.622, 48.301, 7.757, 17.444, 0.015,-0.013, 1.033, 170.877 
2678, -2.509, 0.903, 1.622, 48.301, 7.757, 17.444, 0.015,-0.013, 1.033, 170.877 
2689, -2.509, 0.903, 1.622, 48.301, 7.757, 17.444, 0.015,-0.013, 1.033, 170.877 
2700, -2.509, 0.903, 1.622, 48.301, 7.757, 17.444, 0.015,-0.013, 1.033, 170.877 
2712, -2.509, 0.903, 1.622, 48.301, 7.757, 17.444, 0.015,-0.013, 1.033, 170.877 
2723, -2.509, 0.903, 1.622, 48.301, 7.757, 17.444, 0.015,-0.013, 1.033, 170.877 
2734, -2.509, 0.903, 1.622, 48.301, 7.757, 17.444, 0.015,-0.013, 1.033, 170.877 
2745, -2.509, 0.903, 1.622, 48.301, 7.757, 17.444, 0.015,-0.013, 1.033, 170.877 
2757, -2.474, 0.945, 1.592, 48.456, 7.758, 17.618, 0.015,-0.013, 1.033, 170.904 
2768, -2.474, 0.945, 1.592, 48.456, 7.758, 17.618, 0.015,-0.013, 1.033, 170.904 
2779, -2.474, 0.945, 1.592, 48.456, 7.758, 17.618, 0.015,-0.013, 1.033, 170.904 
2790, -2.474, 0.945, 1.592, 48.456, 7.758, 17.618, 0.015,-0.013, 1.033, 170.904 
2801, -2.474, 0.945, 1.592, 48.456, 7.758, 17.618, 0.015,-0.013, 1.033, 170.904 
2812, -2.474, 0.945, 1.592, 48.456, 7.758, 17.618, 0.015,-0.013, 1.033, 170.904 
2823, -2.474, 0.945, 1.592, 48.456, 7.758, 17.618, 0.015,-0.013, 1.033, 170.904 
2835, -2.474, 0.945, 1.592, 48.456, 7.758, 17.618, 0.015,-0.013, 1.033, 170.904 
2846, -2.474, 0.945, 1.592, 48.456, 7.758, 17.618, 0.015,-0.013, 1.033, 170.904 
2857, -2.474, 0.945, 1.592, 48.456, 7.758, 17.618, 0.015,-0.013, 1.033, 170.904 
2869, -2.462, 0.981, 1.560, 48.491, 7.730, 17.551, 0.015,-0.013, 1.033, 170.943 
2880, -2.462, 0.981, 1.560, 48.491, 7.730, 17.551, 0.015,-0.013, 1.032, 170.943 
2891, -2.462, 0.981, 1.560, 48.491, 7.730, 17.551, 0.015,-0.013, 1.032, 170.943 
2902, -2.462, 0.981, 1.560, 48.491, 7.730, 17.551, 0.015,-0.013, 1.032, 170.943 
2913, -2.462, 0.981, 1.560, 48.491, 7.730, 17.551, 0.015,-0.013, 1.032, 170.943 
2924, -2.462, 0.981, 1.560, 48.491, 7.730, 17.551, 0.015,-0.013, 1.032, 170.943 
2935, -2.462, 0.981, 1.560, 48.491, 7.730, 17.551, 0.015,-0.013, 1.032, 170.943 
2946, -2.462, 0.981, 1.560, 48.491, 7.730, 17.551, 0.015,-0.013, 1.032, 170.943 
2958, -2.462, 0.981, 1.560, 48.491, 7.730, 17.551, 0.015,-0.013, 1.032, 170.943 
2970, -2.462, 0.981, 1.560, 48.491, 7.730, 17.551, 0.015,-0.013, 1.032, 170.943 
2981, -2.462, 0.981, 1.560, 48.520, 7.707, 17.498, 0.015,-0.013, 1.032, 170.974 
2992, -2.497, 1.024, 1.592, 48.520, 7.707, 17.498, 0.015,-0.013, 1.034, 170.974 
3003, -2.497, 1.024, 1.592, 48.520, 7.707, 17.498, 0.015,-0.013, 1.034, 170.974 
3014, -2.497, 1.024, 1.592, 48.520, 7.707, 17.498, 0.015,-0.013, 1.034, 170.974 
3025, -2.497, 1.024, 1.592, 48.520, 7.707, 17.498, 0.015,-0.013, 1.034, 170.974 
3036, -2.497, 1.024, 1.592, 48.520, 7.707, 17.498, 0.015,-0.013, 1.034, 170.974 
3048, -2.497, 1.024, 1.592, 48.520, 7.707, 17.498, 0.015,-0.013, 1.034, 170.974 
3059, -2.497, 1.024, 1.592, 48.520, 7.707, 17.498, 0.015,-0.013, 1.034, 170.974 
3070, -2.497, 1.024, 1.592, 48.520, 7.707, 17.498, 0.015,-0.013, 1.034, 170.974 
3081, -2.497, 1.024, 1.592, 48.520, 7.707, 17.498, 0.015,-0.013, 1.034, 170.974 
3093, -2.497, 1.024, 1.592, 48.520, 7.707, 17.498, 0.015,-0.013, 1.034, 170.974 
3106, -2.511, 1.053, 1.575, 48.543, 7.689, 17.456, 0.015,-0.013, 1.037, 170.999 
3117, -2.511, 1.053, 1.575, 48.543, 7.689, 17.456, 0.015,-0.013, 1.037, 170.999 
3128, -2.511, 1.053, 1.575, 48.543, 7.689, 17.456, 0.015,-0.013, 1.037, 170.999 
3139, -2.511, 1.053, 1.575, 48.543, 7.689, 17.456, 0.015,-0.013, 1.037, 170.999 
3150, -2.511, 1.053, 1.575, 48.543, 7.689, 17.456, 0.015,-0.013, 1.037, 170.999 
3161, -2.511, 1.053, 1.575, 48.543, 7.689, 17.456, 0.015,-0.013, 1.037, 170.999 
3172, -2.511, 1.053, 1.575, 48.543, 7.689, 17.456, 0.015,-0.013, 1.037, 170.999 
3183, -2.511, 1.053, 1.575, 48.543, 7.689, 17.456, 0.015,-0.013, 1.037, 170.999 
3195, -2.511, 1.053, 1.575, 48.543, 7.689, 17.456, 0.015,-0.013, 1.037, 170.999 
3206, -2.511, 1.053, 1.575, 48.543, 7.689, 17.456, 0.015,-0.013, 1.037, 170.999 
3217, -2.511, 1.053, 1.575, 48.543, 7.689, 17.456, 0.015,-0.013, 1.037, 170.999 
3228, -2.498, 1.039, 1.617, 48.561, 7.675, 17.422, 0.016,-0.013, 1.036, 171.019 
3239, -2.498, 1.039, 1.617, 48.561, 7.675, 17.422, 0.016,-0.013, 1.036, 171.019 
3250, -2.498, 1.039, 1.617, 48.561, 7.675, 17.422, 0.016,-0.013, 1.036, 171.019 
3260, -2.498, 1.039, 1.617, 48.561, 7.675, 17.422, 0.016,-0.013, 1.036, 171.019 
3271, -2.498, 1.039, 1.617, 48.561, 7.675, 17.422, 0.016,-0.013, 1.036, 171.019 
3283, -2.498, 1.039, 1.617, 48.561, 7.675, 17.422, 0.016,-0.013, 1.036, 171.019 
3294, -2.498, 1.039, 1.617, 48.561, 7.675, 17.422, 0.016,-0.013, 1.036, 171.019 
3305, -2.498, 1.039, 1.617, 48.561, 7.675, 17.422, 0.016,-0.013, 1.036, 171.019 
3316, -2.498, 1.039, 1.617, 48.561, 7.675, 17.422, 0.016,-0.013, 1.036, 171.019 
3329, -2.498, 1.039, 1.617, 48.561, 7.675, 17.422, 0.016,-0.013, 1.036, 171.019 
3341, -2.501, 1.014, 1.573, 48.576, 7.664, 17.394, 0.016,-0.013, 1.036, 171.035 
3352, -2.501, 1.014, 1.573, 48.576, 7.664, 17.394, 0.016,-0.013, 1.036, 171.035 
3363, -2.501, 1.014, 1.573, 48.576, 7.664, 17.394, 0.016,-0.013, 1.036, 171.035 
3374, -2.501, 1.014, 1.573, 48.576, 7.664, 17.394, 0.016,-0.013, 1.036, 171.035 
3385, -2.501, 1.014, 1.573, 48.576, 7.664, 17.394, 0.016,-0.013, 1.036, 171.035 
3396, -2.501, 1.014, 1.573, 48.576, 7.664, 17.394, 0.016,-0.013, 1.036, 171.035 
3407, -2.501, 1.014, 1.573, 48.576, 7.664, 17.394, 0.016,-0.013, 1.036, 171.035 
3419, -2.501, 1.014, 1.573, 48.576, 7.664, 17.394, 0.016,-0.013, 1.036, 171.035 
3430, -2.501, 1.014, 1.573, 48.576, 7.664, 17.394, 0.016,-0.013, 1.036, 171.035 
3443, -2.501, 1.014, 1.573, 48.576, 7.664, 17.394, 0.016,-0.013, 1.036, 171.035 
3455, -2.501, 1.045, 1.547, 48.646, 7.596, 17.666, 0.015,-0.013, 1.037, 171.125 
3466, -2.501, 1.045, 1.547, 48.646, 7.596, 17.666, 0.015,-0.013, 1.037, 171.125 
3477, -2.501, 1.045, 1.547, 48.646, 7.596, 17.666, 0.015,-0.013, 1.037, 171.125 
3488, -2.501, 1.045, 1.547, 48.646, 7.596, 17.666, 0.015,-0.013, 1.037, 171.125 
3499, -2.501, 1.045, 1.547, 48.646, 7.596, 17.666, 0.015,-0.013, 1.037, 171.125 
3510, -2.501, 1.045, 1.547, 48.646, 7.596, 17.666, 0.015,-0.013, 1.037, 171.125 
3521, -2.501, 1.045, 1.547, 48.646, 7.596, 17.666, 0.015,-0.013, 1.037, 171.125 
3532, -2.501, 1.045, 1.547, 48.646, 7.596, 17.666, 0.015,-0.013, 1.037, 171.125 
3543, -2.501, 1.045, 1.547, 48.646, 7.596, 17.666, 0.015,-0.013, 1.037, 171.125 
3556, -2.501, 1.045, 1.547, 48.646, 7.596, 17.666, 0.015,-0.013, 1.037, 171.125 
3571, -2.495, 1.019, 1.505, 48.556, 7.629, 17.853, 0.015,-0.013, 1.036, 171.070 
3582, -2.495, 1.019, 1.505, 48.556, 7.629, 17.853, 0.015,-0.013, 1.036, 171.070 
3593, -2.495, 1.019, 1.505, 48.556, 7.629, 17.853, 0.015,-0.013, 1.036, 171.070 
3604, -2.495, 1.019, 1.505, 48.556, 7.629, 17.853, 0.015,-0.013, 1.036, 171.070 
3615, -2.495, 1.019, 1.505, 48.556, 7.629, 17.853, 0.015,-0.013, 1.036, 171.070 
3626, -2.495, 1.019, 1.505, 48.556, 7.629, 17.853, 0.015,-0.013, 1.036, 171.070 
3637, -2.495, 1.019, 1.505, 48.556, 7.629, 17.853, 0.015,-0.013, 1.036, 171.070 
3648, -2.495, 1.019, 1.505, 48.556, 7.629, 17.853, 0.015,-0.013, 1.036, 171.070 
3660, -2.495, 1.019, 1.505, 48.556, 7.629, 17.853, 0.015,-0.013, 1.036, 171.070 
3673, -2.495, 1.019, 1.505, 48.556, 7.629, 17.853, 0.015,-0.013, 1.036, 171.070 
3684, -2.523, 1.032, 1.533, 48.777, 7.598, 17.828, 0.015,-0.013, 1.036, 171.147 
3695, -2.523, 1.032, 1.533, 48.777, 7.598, 17.828, 0.016,-0.013, 1.035, 171.147 
3706, -2.523, 1.032, 1.533, 48.777, 7.598, 17.828, 0.016,-0.013, 1.035, 171.147 
3717, -2.523, 1.032, 1.533, 48.777, 7.598, 17.828, 0.016,-0.013, 1.035, 171.147 
3728, -2.523, 1.032, 1.533, 48.777, 7.598, 17.828, 0.016,-0.013, 1.035, 171.147 
3739, -2.523, 1.032, 1.533, 48.777, 7.598, 17.828, 0.016,-0.013, 1.035, 171.147 
3751, -2.523, 1.032, 1.533, 48.777, 7.598, 17.828, 0.016,-0.013, 1.035, 171.147 
3762, -2.523, 1.032, 1.533, 48.777, 7.598, 17.828, 0.016,-0.013, 1.035, 171.147 
3773, -2.523, 1.032, 1.533, 48.777, 7.598, 17.828, 0.016,-0.013, 1.035, 171.147 
3784, -2.523, 1.032, 1.533, 48.777, 7.598, 17.828, 0.016,-0.013, 1.035, 171.147 
3795, -2.523, 1.032, 1.533, 48.777, 7.865, 17.807, 0.016,-0.013, 1.035, 170.840 
3806, -2.484, 1.025, 1.564, 48.777, 7.865, 17.807, 0.015,-0.014, 1.036, 170.840 
3817, -2.484, 1.025, 1.564, 48.777, 7.865, 17.807, 0.015,-0.014, 1.036, 170.840 
3828, -2.484, 1.025, 1.564, 48.777, 7.865, 17.807, 0.015,-0.014, 1.036, 170.840 
3839, -2.484, 1.025, 1.564, 48.777, 7.865, 17.807, 0.015,-0.014, 1.036, 170.840 
3851, -2.484, 1.025, 1.564, 48.777, 7.865, 17.807, 0.015,-0.014, 1.036, 170.840 
3862, -2.484, 1.025, 1.564, 48.777, 7.865, 17.807, 0.015,-0.014, 1.036, 170.840 
3873, -2.484, 1.025, 1.564, 48.777, 7.865, 17.807, 0.015,-0.014, 1.036, 170.840 
3884, -2.484, 1.025, 1.564, 48.777, 7.865, 17.807, 0.015,-0.014, 1.036, 170.840 
3895, -2.484, 1.025, 1.564, 48.777, 7.865, 17.807, 0.015,-0.014, 1.036, 170.840 
3910, -2.510, 1.034, 1.564, 48.720, 7.786, 17.615, 0.015,-0.014, 1.036, 170.920 
3921, -2.510, 1.034, 1.564, 48.720, 7.786, 17.615, 0.015,-0.013, 1.036, 170.920 
3932, -2.510, 1.034, 1.564, 48.720, 7.786, 17.615, 0.015,-0.013, 1.036, 170.920 
3943, -2.510, 1.034, 1.564, 48.720, 7.786, 17.615, 0.015,-0.013, 1.036, 170.920 
3954, -2.510, 1.034, 1.564, 48.720, 7.786, 17.615, 0.015,-0.013, 1.036, 170.920 
3965, -2.510, 1.034, 1.564, 48.720, 7.786, 17.615, 0.015,-0.013, 1.036, 170.920 
3976, -2.510, 1.034, 1.564, 48.720, 7.786, 17.615, 0.015,-0.013, 1.036, 170.920 
3987, -2.510, 1.034, 1.564, 48.720, 7.786, 17.615, 0.015,-0.013, 1.036, 170.920 
3998, -2.510, 1.034, 1.564, 48.720, 7.786, 17.615, 0.015,-0.013, 1.036, 170.920 
4010, -2.510, 1.034, 1.564, 48.720, 7.786, 17.615, 0.015,-0.013, 1.036, 170.920 
4022, -2.510, 1.034, 1.564, 48.732, 7.723, 17.461, 0.015,-0.013, 1.036, 170.994 
4033, -2.522, 1.045, 1.567, 48.732, 7.723, 17.461, 0.016,-0.013, 1.036, 170.994 
4044, -2.522, 1.045, 1.567, 48.732, 7.723, 17.461, 0.016,-0.013, 1.036, 170.994 
4055, -2.522, 1.045, 1.567, 48.732, 7.723, 17.461, 0.016,-0.013, 1.036, 170.994 
4066, -2.522, 1.045, 1.567, 48.732, 7.723, 17.461, 0.016,-0.013, 1.036, 170.994 
4078, -2.522, 1.045, 1.567, 48.732, 7.723, 17.461, 0.016,-0.013, 1.036, 170.994 
4089, -2.522, 1.045, 1.567, 48.732, 7.723, 17.461, 0.016,-0.013, 1.036, 170.994 
4100, -2.522, 1.045, 1.567, 48.732, 7.723, 17.461, 0.016,-0.013, 1.036, 170.994 
4111, -2.522, 1.045, 1.567, 48.732, 7.723, 17.461, 0.016,-0.013, 1.036, 170.994 
4124, -2.522, 1.045, 1.567, 48.732, 7.723, 17.461, 0.016,-0.013, 1.036, 170.994 
4136, -2.522, 1.045, 1.567, 48.742, 7.614, 17.514, 0.016,-0.013, 1.036, 171.121 
4147, -2.532, 1.048, 1.560, 48.742, 7.614, 17.514, 0.015,-0.012, 1.035, 171.121 
4158, -2.532, 1.048, 1.560, 48.742, 7.614, 17.514, 0.015,-0.012, 1.035, 171.121 
4169, -2.532, 1.048, 1.560, 48.742, 7.614, 17.514, 0.015,-0.012, 1.035, 171.121 
4180, -2.532, 1.048, 1.560, 48.742, 7.614, 17.514, 0.015,-0.012, 1.035, 171.121 
4191, -2.532, 1.048, 1.560, 48.742, 7.614, 17.514, 0.015,-0.012, 1.035, 171.121 
4202, -2.532, 1.048, 1.560, 48.742, 7.614, 17.514, 0.015,-0.012, 1.035, 171.121 
4213, -2.532, 1.048, 1.560, 48.742, 7.614, 17.514, 0.015,-0.012, 1.035, 171.121 
4225, -2.532, 1.048, 1.560, 48.742, 7.614, 17.514, 0.015,-0.012, 1.035, 171.121 
4236, -2.532, 1.048, 1.560, 48.742, 7.614, 17.514, 0.015,-0.012, 1.035, 171.121 
4252, -2.532, 1.048, 1.560, 48.574, 7.703, 17.380, 0.015,-0.012, 1.035, 170.989 
4263, -2.549, 1.075, 1.534, 48.574, 7.703, 17.380, 0.015,-0.013, 1.035, 170.989 
4274, -2.549, 1.075, 1.534, 48.574, 7.703, 17.380, 0.015,-0.013, 1.035, 170.989 
4285, -2.549, 1.075, 1.534, 48.574, 7.703, 17.380, 0.015,-0.013, 1.035, 170.989 
4296, -2.549, 1.075, 1.534, 48.574, 7.703, 17.380, 0.015,-0.013, 1.035, 170.989 
4307, -2.549, 1.075, 1.534, 48.574, 7.703, 17.380, 0.015,-0.013, 1.035, 170.989 
4318, -2.549, 1.075, 1.534, 48.574, 7.703, 17.380, 0.015,-0.013, 1.035, 170.989 
4329, -2.549, 1.075, 1.534, 48.574, 7.703, 17.380, 0.015,-0.013, 1.035, 170.989 
4340, -2.549, 1.075, 1.534, 48.574, 7.703, 17.380, 0.015,-0.013, 1.035, 170.989 
4351, -2.549, 1.075, 1.534, 48.574, 7.703, 17.380, 0.015,-0.013, 1.035, 170.989 
4363, -2.549, 1.075, 1.534, 48.439, 7.891, 17.098, 0.015,-0.013, 1.035, 170.748 
4374, -2.535, 1.072, 1.529, 48.439, 7.891, 17.098, 0.015,-0.013, 1.035, 170.748 
4385, -2.535, 1.072, 1.529, 48.439, 7.891, 17.098, 0.015,-0.013, 1.035, 170.748 
4396, -2.535, 1.072, 1.529, 48.439, 7.891, 17.098, 0.015,-0.013, 1.035, 170.748 
4407, -2.535, 1.072, 1.529, 48.439, 7.891, 17.098, 0.015,-0.013, 1.035, 170.748 
4418, -2.535, 1.072, 1.529, 48.439, 7.891, 17.098, 0.015,-0.013, 1.035, 170.748 
4430, -2.535, 1.072, 1.529, 48.439, 7.891, 17.098, 0.015,-0.013, 1.035, 170.748 
4441, -2.535, 1.072, 1.529, 48.439, 7.891, 17.098, 0.015,-0.013, 1.035, 170.748 
4452, -2.535, 1.072, 1.529, 48.439, 7.891, 17.098, 0.015,-0.013, 1.035, 170.748 
4463, -2.535, 1.072, 1.529, 48.439, 7.891, 17.098, 0.015,-0.013, 1.035, 170.748 
4474, -2.535, 1.072, 1.529, 48.439, 7.891, 17.098, 0.015,-0.013, 1.035, 170.748 
4486, -2.535, 1.072, 1.529, 48.302, 7.836, 17.077, 0.015,-0.013, 1.035, 170.785 
4497, -2.489, 1.026, 1.492, 48.302, 7.836, 17.077, 0.015,-0.012, 1.034, 170.785 
4508, -2.489, 1.026, 1.492, 48.302, 7.836, 17.077, 0.015,-0.012, 1.034, 170.785 
4519, -2.489, 1.026, 1.492, 48.302, 7.836, 17.077, 0.015,-0.012, 1.034, 170.785 
4530, -2.489, 1.026, 1.492, 48.302, 7.836, 17.077, 0.015,-0.012, 1.034, 170.785 
4541, -2.489, 1.026, 1.492, 48.302, 7.836, 17.077, 0.015,-0.012, 1.034, 170.785 
4552, -2.489, 1.026, 1.492, 48.302, 7.836, 17.077, 0.015,-0.012, 1.034, 170.785 
4564, -2.489, 1.026, 1.492, 48.302, 7.836, 17.077, 0.015,-0.012, 1.034, 170.785 
4575, -2.489, 1.026, 1.492, 48.302, 7.836, 17.077, 0.015,-0.012, 1.034, 170.785 
4586, -2.489, 1.026, 1.492, 48.302, 7.836, 17.077, 0.015,-0.012, 1.034, 170.785 
4598, -2.489, 1.026, 1.492, 48.302, 7.836, 17.077, 0.015,-0.012, 1.034, 170.785 
4613, -2.527, 1.054, 1.534, 48.281, 7.822, 17.148, 0.016,-0.012, 1.036, 170.798 
4624, -2.527, 1.054, 1.534, 48.281, 7.822, 17.148, 0.016,-0.012, 1.036, 170.798 
4635, -2.527, 1.054, 1.534, 48.281, 7.822, 17.148, 0.016,-0.012, 1.036, 170.798 
4646, -2.527, 1.054, 1.534, 48.281, 7.822, 17.148, 0.016,-0.012, 1.036, 170.798 
4657, -2.527, 1.054, 1.534, 48.281, 7.822, 17.148, 0.016,-0.012, 1.036, 170.798 
4668, -2.527, 1.054, 1.534, 48.281, 7.822, 17.148, 0.016,-0.012, 1.036, 170.798 
4679, -2.527, 1.054, 1.534, 48.281, 7.822, 17.148, 0.016,-0.012, 1.036, 170.798 
4690, -2.527, 1.054, 1.534, 48.281, 7.822, 17.148, 0.016,-0.012, 1.036, 170.798 
4702, -2.527, 1.054, 1.534, 48.281, 7.822, 17.148, 0.016,-0.012, 1.036, 170.798 
4713, -2.527, 1.054, 1.534, 48.281, 7.822, 17.148, 0.016,-0.012, 1.036, 170.798 
4724, -2.527, 1.054, 1.534, 48.176, 7.898, 17.410, 0.016,-0.012, 1.036, 170.690 
4735, -2.545, 1.037, 1.499, 48.176, 7.898, 17.410, 0.016,-0.012, 1.037, 170.690 
4746, -2.545, 1.037, 1.499, 48.176, 7.898, 17.410, 0.016,-0.012, 1.037, 170.690 
4757, -2.545, 1.037, 1.499, 48.176, 7.898, 17.410, 0.016,-0.012, 1.037, 170.690 
4768, -2.545, 1.037, 1.499, 48.176, 7.898, 17.410, 0.016,-0.012, 1.037, 170.690 
4779, -2.545, 1.037, 1.499, 48.176, 7.898, 17.410, 0.016,-0.012, 1.037, 170.690 
4790, -2.545, 1.037, 1.499, 48.176, 7.898, 17.410, 0.016,-0.012, 1.037, 170.690 
4801, -2.545, 1.037, 1.499, 48.176, 7.898, 17.410, 0.016,-0.012, 1.037, 170.690 
4812, -2.545, 1.037, 1.499, 48.176, 7.898, 17.410, 0.016,-0.012, 1.037, 170.690 
4823, -2.545, 1.037, 1.499, 48.176, 7.898, 17.410, 0.016,-0.012, 1.037, 170.690 
4838, -2.545, 1.037, 1.499, 48.033, 7.900, 17.326, 0.016,-0.012, 1.037, 170.660 
4849, -2.513, 1.020, 1.576, 48.033, 7.900, 17.326, 0.015,-0.012, 1.038, 170.660 
4860, -2.513, 1.020, 1.576, 48.033, 7.900, 17.326, 0.015,-0.012, 1.038, 170.660 
4871, -2.513, 1.020, 1.576, 48.033, 7.900, 17.326, 0.015,-0.012, 1.038, 170.660 
4882, -2.513, 1.020, 1.576, 48.033, 7.900, 17.326, 0.015,-0.012, 1.038, 170.660 
4893, -2.513, 1.020, 1.576, 48.033, 7.900, 17.326, 0.015,-0.012, 1.038, 170.660 
4904, -2.513, 1.020, 1.576, 48.033, 7.900, 17.326, 0.015,-0.012, 1.038, 170.660 
4915, -2.513, 1.020, 1.576, 48.033, 7.900, 17.326, 0.015,-0.012, 1.038, 170.660 
4926, -2.513, 1.020, 1.576, 48.033, 7.900, 17.326, 0.015,-0.012, 1.038, 170.660 
4938, -2.513, 1.020, 1.576, 48.033, 7.900, 17.326, 0.015,-0.012, 1.038, 170.660 
4950, -2.513, 1.020, 1.576, 47.919, 7.902, 17.260, 0.015,-0.012, 1.038, 170.635 
4961, -2.519, 1.065, 1.557, 47.919, 7.902, 17.260, 0.015,-0.013, 1.039, 170.635 
4972, -2.519, 1.065, 1.557, 47.919, 7.902, 17.260, 0.015,-0.013, 1.039, 170.635 
4983, -2.519, 1.065, 1.557, 47.919, 7.902, 17.260, 0.015,-0.013, 1.039, 170.635 
4994, -2.519, 1.065, 1.557, 47.919, 7.902, 17.260, 0.015,-0.013, 1.039, 170.635 
5005, -2.519, 1.065, 1.557, 47.919, 7.902, 17.260, 0.015,-0.013, 1.039, 170.635 
5016, -2.519, 1.065, 1.557, 47.919, 7.902, 17.260, 0.015,-0.013, 1.039, 170.635 
5027, -2.519, 1.065, 1.557, 47.919, 7.902, 17.260, 0.015,-0.013, 1.039, 170.635 
5038, -2.519, 1.065, 1.557, 47.919, 7.902, 17.260, 0.015,-0.013, 1.039, 170.635 
5050, -2.519, 1.065, 1.557, 47.919, 7.902, 17.260, 0.015,-0.013, 1.039, 170.635 
5061, -2.519, 1.065, 1.557, 47.828, 7.904, 17.206, 0.015,-0.013, 1.039, 170.616 
5074, -2.557, 1.032, 1.518, 47.828, 7.904, 17.206, 0.015,-0.013, 1.038, 170.616 
5085, -2.557, 1.032, 1.518, 47.828, 7.904, 17.206, 0.015,-0.013, 1.038, 170.616 
5096, -2.557, 1.032, 1.518, 47.828, 7.904, 17.206, 0.015,-0.013, 1.038, 170.616 
5107, -2.557, 1.032, 1.518, 47.828, 7.904, 17.206, 0.015,-0.013, 1.038, 170.616 
5118, -2.557, 1.032, 1.518, 47.828, 7.904, 17.206, 0.015,-0.013, 1.038, 170.616 
5129, -2.557, 1.032, 1.518, 47.828, 7.904, 17.206, 0.015,-0.013, 1.038, 170.616 
5141, -2.557, 1.032, 1.518, 47.828, 7.904, 17.206, 0.015,-0.013, 1.038, 170.616 
5152, -2.557, 1.032, 1.518, 47.828, 7.904, 17.206, 0.015,-0.013, 1.038, 170.616 
5163, -2.557, 1.032, 1.518, 47.828, 7.904, 17.206, 0.015,-0.013, 1.038, 170.616 
5174, -2.557, 1.032, 1.518, 48.018, 7.876, 17.193, 0.015,-0.013, 1.038, 170.685 
5185, -2.540, 1.044, 1.491, 48.018, 7.876, 17.193, 0.014,-0.012, 1.038, 170.685 
5196, -2.540, 1.044, 1.491, 48.018, 7.876, 17.193, 0.014,-0.012, 1.038, 170.685 
5208, -2.540, 1.044, 1.491, 48.018, 7.876, 17.193, 0.014,-0.012, 1.038, 170.685 
5219, -2.540, 1.044, 1.491, 48.018, 7.876, 17.193, 0.014,-0.012, 1.038, 170.685 
5230, -2.540, 1.044, 1.491, 48.018, 7.876, 17.193, 0.014,-0.012, 1.038, 170.685 
5241, -2.540, 1.044, 1.491, 48.018, 7.876, 17.193, 0.014,-0.012, 1.038, 170.685 
5252, -2.540, 1.044, 1.491, 48.018, 7.876, 17.193, 0.014,-0.012, 1.038, 170.685 
5263, -2.540, 1.044, 1.491, 48.018, 7.876, 17.193, 0.014,-0.012, 1.038, 170.685 
5274, -2.540, 1.044, 1.491, 48.018, 7.876, 17.193, 0.014,-0.012, 1.038, 170.685 
5286, -2.540, 1.044, 1.491, 48.141, 7.941, 17.446, 0.014,-0.012, 1.038, 170.633 
5297, -2.493, 1.043, 1.533, 48.141, 7.941, 17.446, 0.014,-0.012, 1.038, 170.633 
5308, -2.493, 1.043, 1.533, 48.141, 7.941, 17.446, 0.014,-0.012, 1.038, 170.633 
5319, -2.493, 1.043, 1.533, 48.141, 7.941, 17.446, 0.014,-0.012, 1.038, 170.633 
5330, -2.493, 1.043, 1.533, 48.141, 7.941, 17.446, 0.014,-0.012, 1.038, 170.633 
5341, -2.493, 1.043, 1.533, 48.141, 7.941, 17.446, 0.014,-0.012, 1.038, 170.633 
5352, -2.493, 1.043, 1.533, 48.141, 7.941, 17.446, 0.014,-0.012, 1.038, 170.633 
5363, -2.493, 1.043, 1.533, 48.141, 7.941, 17.446, 0.014,-0.012, 1.038, 170.633 
5374, -2.493, 1.043, 1.533, 48.141, 7.941, 17.446, 0.014,-0.012, 1.038, 170.633 
5385, -2.493, 1.043, 1.533, 48.141, 7.941, 17.446, 0.014,-0.012, 1.038, 170.633 
5396, -2.493, 1.043, 1.533, 48.141, 7.941, 17.446, 0.014,-0.012, 1.038, 170.633 
5409, -2.487, 1.034, 1.529, 48.387, 8.023, 17.326, 0.014,-0.012, 1.038, 170.585 
5420, -2.487, 1.034, 1.529, 48.387, 8.023, 17.326, 0.014,-0.013, 1.038, 170.585 
5431, -2.487, 1.034, 1.529, 48.387, 8.023, 17.326, 0.014,-0.013, 1.038, 170.585 
5442, -2.487, 1.034, 1.529, 48.387, 8.023, 17.326, 0.014,-0.013, 1.038, 170.585 
5453, -2.487, 1.034, 1.529, 48.387, 8.023, 17.326, 0.014,-0.013, 1.038, 170.585 
5464, -2.487, 1.034, 1.529, 48.387, 8.023, 17.326, 0.014,-0.013, 1.038, 170.585 
5475, -2.487, 1.034, 1.529, 48.387, 8.023, 17.326, 0.014,-0.013, 1.038, 170.585 
5486, -2.487, 1.034, 1.529, 48.387, 8.023, 17.326, 0.014,-0.013, 1.038, 170.585 
5497, -2.487, 1.034, 1.529, 48.387, 8.023, 17.326, 0.014,-0.013, 1.038, 170.585 
5510, -2.487, 1.034, 1.529, 48.387, 8.023, 17.326, 0.014,-0.013, 1.038, 170.585 
5521, -2.487, 1.034, 1.529, 48.387, 8.023, 17.326, 0.014,-0.013, 1.038, 170.585 
5534, -2.502, 1.006, 1.562, 48.495, 8.001, 17.318, 0.015,-0.013, 1.037, 170.632 
5545, -2.502, 1.006, 1.562, 48.495, 8.001, 17.318, 0.015,-0.013, 1.037, 170.632 
5556, -2.502, 1.006, 1.562, 48.495, 8.001, 17.318, 0.015,-0.013, 1.037, 170.632 
5567, -2.502, 1.006, 1.562, 48.495, 8.001, 17.318, 0.015,-0.013, 1.037, 170.632 
5578, -2.502, 1.006, 1.562, 48.495, 8.001, 17.318, 0.015,-0.013, 1.037, 170.632 
5589, -2.502, 1.006, 1.562, 48.495, 8.001, 17.318, 0.015,-0.013, 1.037, 170.632 
5600, -2.502, 1.006, 1.562, 48.495, 8.001, 17.318, 0.015,-0.013, 1.037, 170.632 
5611, -2.502, 1.006, 1.562, 48.495, 8.001, 17.318, 0.015,-0.013, 1.037, 170.632 
5623, -2.502, 1.006, 1.562, 48.495, 8.001, 17.318, 0.015,-0.013, 1.037, 170.632 
5636, -2.502, 1.006, 1.562, 48.495, 8.001, 17.318, 0.015,-0.013, 1.037, 170.632 
5649, -2.515, 1.015, 1.570, 48.259, 7.953, 17.399, 0.015,-0.013, 1.038, 170.642 
5660, -2.515, 1.015, 1.570, 48.259, 7.953, 17.399, 0.015,-0.013, 1.038, 170.642 
5671, -2.515, 1.015, 1.570, 48.259, 7.953, 17.399, 0.015,-0.013, 1.038, 170.642 
5681, -2.515, 1.015, 1.570, 48.259, 7.953, 17.399, 0.015,-0.013, 1.038, 170.642 
5693, -2.515, 1.015, 1.570, 48.259, 7.953, 17.399, 0.015,-0.013, 1.038, 170.642 
5704, -2.515, 1.015, 1.570, 48.259, 7.953, 17.399, 0.015,-0.013, 1.038, 170.642 
5715, -2.515, 1.015, 1.570, 48.259, 7.953, 17.399, 0.015,-0.013, 1.038, 170.642 
5726, -2.515, 1.015, 1.570, 48.259, 7.953, 17.399, 0.015,-0.013, 1.038, 170.642 
5738, -2.515, 1.015, 1.570, 48.259, 7.953, 17.399, 0.015,-0.013, 1.038, 170.642 
5751, -2.515, 1.015, 1.570, 48.259, 7.953, 17.399, 0.015,-0.013, 1.038, 170.642 
5762, -2.505, 1.006, 1.555, 48.158, 7.828, 17.611, 0.015,-0.014, 1.037, 170.768 
5773, -2.505, 1.006, 1.555, 48.158, 7.828, 17.611, 0.015,-0.014, 1.037, 170.768 
5784, -2.505, 1.006, 1.555, 48.158, 7.828, 17.611, 0.015,-0.014, 1.037, 170.768 
5795, -2.505, 1.006, 1.555, 48.158, 7.828, 17.611, 0.015,-0.014, 1.037, 170.768 
5806, -2.505, 1.006, 1.555, 48.158, 7.828, 17.611, 0.015,-0.014, 1.037, 170.768 
5817, -2.505, 1.006, 1.555, 48.158, 7.828, 17.611, 0.015,-0.014, 1.037, 170.768 
5828, -2.505, 1.006, 1.555, 48.158, 7.828, 17.611, 0.015,-0.014, 1.037, 170.768 
5839, -2.505, 1.006, 1.555, 48.158, 7.828, 17.611, 0.015,-0.014, 1.037, 170.768 
5851, -2.505, 1.006, 1.555, 48.158, 7.828, 17.611, 0.015,-0.014, 1.037, 170.768 
5862, -2.505, 1.006, 1.555, 48.158, 7.828, 17.611, 0.015,-0.014, 1.037, 170.768 
5873, -2.506, 0.994, 1.581, 48.166, 7.756, 17.575, 0.015,-0.014, 1.038, 170.852 
5884, -2.506, 0.994, 1.581, 48.166, 7.756, 17.575, 0.015,-0.014, 1.038, 170.852 
5895, -2.506, 0.994, 1.581, 48.166, 7.756, 17.575, 0.015,-0.014, 1.038, 170.852 
5906, -2.506, 0.994, 1.581, 48.166, 7.756, 17.575, 0.015,-0.014, 1.038, 170.852 
5917, -2.506, 0.994, 1.581, 48.166, 7.756, 17.575, 0.015,-0.014, 1.038, 170.852 
5928, -2.506, 0.994, 1.581, 48.166, 7.756, 17.575, 0.015,-0.014, 1.038, 170.852 
5939, -2.506, 0.994, 1.581, 48.166, 7.756, 17.575, 0.015,-0.014, 1.038, 170.852 
5950, -2.506, 0.994, 1.581, 48.166, 7.756, 17.575, 0.015,-0.014, 1.038, 170.852 
5961, -2.506, 0.994, 1.581, 48.166, 7.756, 17.575, 0.015,-0.014, 1.038, 170.852 
5972, -2.506, 0.994, 1.581, 48.166, 7.756, 17.575, 0.015,-0.014, 1.038, 170.852 
5984, -2.506, 0.994, 1.581, 48.230, 7.641, 17.429, 0.015,-0.014, 1.038, 170.998 
5995, -2.497, 0.978, 1.614, 48.230, 7.641, 17.429, 0.015,-0.012, 1.038, 170.998 
6006, -2.497, 0.978, 1.614, 48.230, 7.641, 17.429, 0.015,-0.012, 1.038, 170.998 
6017, -2.497, 0.978, 1.614, 48.230, 7.641, 17.429, 0.015,-0.012, 1.038, 170.998 
6028, -2.497, 0.978, 1.614, 48.230, 7.641, 17.429, 0.015,-0.012, 1.038, 170.998 
6039, -2.497, 0.978, 1.614, 48.230, 7.641, 17.429, 0.015,-0.012, 1.038, 170.998 
6050, -2.497, 0.978, 1.614, 48.230, 7.641, 17.429, 0.015,-0.012, 1.038, 170.998 
6061, -2.497, 0.978, 1.614, 48.230, 7.641, 17.429, 0.015,-0.012, 1.038, 170.998 
6072, -2.497, 0.978, 1.614, 48.230, 7.641, 17.429, 0.015,-0.012, 1.038, 170.998 
6083, -2.497, 0.978, 1.614, 48.230, 7.641, 17.429, 0.015,-0.012, 1.038, 170.998 
6098, -2.497, 0.978, 1.614, 48.340, 7.665, 17.489, 0.015,-0.012, 1.038, 170.990 
6109, -2.508, 0.981, 1.574, 48.340, 7.665, 17.489, 0.014,-0.012, 1.037, 170.990 
6120, -2.508, 0.981, 1.574, 48.340, 7.665, 17.489, 0.014,-0.012, 1.037, 170.990 
6131, -2.508, 0.981, 1.574, 48.340, 7.665, 17.489, 0.014,-0.012, 1.037, 170.990 
6142, -2.508, 0.981, 1.574, 48.340, 7.665, 17.489, 0.014,-0.012, 1.037, 170.990 
6153, -2.508, 0.981, 1.574, 48.340, 7.665, 17.489, 0.014,-0.012, 1.037, 170.990 
6164, -2.508, 0.981, 1.574, 48.340, 7.665, 17.489, 0.014,-0.012, 1.037, 170.990 
6175, -2.508, 0.981, 1.574, 48.340, 7.665, 17.489, 0.014,-0.012, 1.037, 170.990 
6186, -2.508, 0.981, 1.574, 48.340, 7.665, 17.489, 0.014,-0.012, 1.037, 170.990 
6197, -2.508, 0.981, 1.574, 48.340, 7.665, 17.489, 0.014,-0.012, 1.037, 170.990 
6211, -2.508, 0.981, 1.574, 48.311, 7.919, 17.243, 0.014,-0.012, 1.037, 170.691 
6223, -2.487, 0.983, 1.544, 48.311, 7.919, 17.243, 0.014,-0.012, 1.038, 170.691 
6234, -2.487, 0.983, 1.544, 48.311, 7.919, 17.243, 0.014,-0.012, 1.038, 170.691 
6244, -2.487, 0.983, 1.544, 48.311, 7.919, 17.243, 0.014,-0.012, 1.038, 170.691 
6255, -2.487, 0.983, 1.544, 48.311, 7.919, 17.243, 0.014,-0.012, 1.038, 170.691 
6266, -2.487, 0.983, 1.544, 48.311, 7.919, 17.243, 0.014,-0.012, 1.038, 170.691 
6278, -2.487, 0.983, 1.544, 48.311, 7.919, 17.243, 0.014,-0.012, 1.038, 170.691 
6289, -2.487, 0.983, 1.544, 48.311, 7.919, 17.243, 0.014,-0.012, 1.038, 170.691 
6300, -2.487, 0.983, 1.544, 48.311, 7.919, 17.243, 0.014,-0.012, 1.038, 170.691 
6311, -2.487, 0.983, 1.544, 48.311, 7.919, 17.243, 0.014,-0.012, 1.038, 170.691 
6324, -2.487, 0.983, 1.544, 48.311, 7.919, 17.243, 0.014,-0.012, 1.038, 170.691 
6335, -2.455, 0.976, 1.525, 48.229, 7.888, 17.281, 0.014,-0.012, 1.039, 170.711 
6346, -2.455, 0.976, 1.525, 48.229, 7.888, 17.281, 0.014,-0.012, 1.039, 170.711 
6357, -2.455, 0.976, 1.525, 48.229, 7.888, 17.281, 0.014,-0.012, 1.039, 170.711 
6368, -2.455, 0.976, 1.525, 48.229, 7.888, 17.281, 0.014,-0.012, 1.039, 170.711 
6379, -2.455, 0.976, 1.525, 48.229, 7.888, 17.281, 0.014,-0.012, 1.039, 170.711 
6390, -2.455, 0.976, 1.525, 48.229, 7.888, 17.281, 0.014,-0.012, 1.039, 170.711 
6401, -2.455, 0.976, 1.525, 48.229, 7.888, 17.281, 0.014,-0.012, 1.039, 170.711 
6412, -2.455, 0.976, 1.525, 48.229, 7.888, 17.281, 0.014,-0.012, 1.039, 170.711 
6423, -2.455, 0.976, 1.525, 48.229, 7.888, 17.281, 0.014,-0.012, 1.039, 170.711 
6434, -2.455, 0.976, 1.525, 48.229, 7.888, 17.281, 0.014,-0.012, 1.039, 170.711 
6446, -2.455, 0.976, 1.525, 48.222, 7.863, 17.311, 0.014,-0.012, 1.039, 170.739 
6457, -2.473, 0.965, 1.536, 48.222, 7.863, 17.311, 0.013,-0.012, 1.039, 170.739 
6468, -2.473, 0.965, 1.536, 48.222, 7.863, 17.311, 0.013,-0.012, 1.039, 170.739 
6479, -2.473, 0.965, 1.536, 48.222, 7.863, 17.311, 0.013,-0.012, 1.039, 170.739 
6490, -2.473, 0.965, 1.536, 48.222, 7.863, 17.311, 0.013,-0.012, 1.039, 170.739 
6501, -2.473, 0.965, 1.536, 48.222, 7.863, 17.311, 0.013,-0.012, 1.039, 170.739 
6512, -2.473, 0.965, 1.536, 48.222, 7.863, 17.311, 0.013,-0.012, 1.039, 170.739 
6523, -2.473, 0.965, 1.536, 48.222, 7.863, 17.311, 0.013,-0.012, 1.039, 170.739 
6534, -2.473, 0.965, 1.536, 48.222, 7.863, 17.311, 0.013,-0.012, 1.039, 170.739 
6545, -2.473, 0.965, 1.536, 48.222, 7.863, 17.311, 0.013,-0.012, 1.039, 170.739 
6556, -2.473, 0.965, 1.536, 48.222, 7.863, 17.311, 0.013,-0.012, 1.039, 170.739 
6570, -2.476, 0.957, 1.520, 48.188, 7.697, 17.130, 0.013,-0.012, 1.039, 170.925 
6581, -2.476, 0.957, 1.520, 48.188, 7.697, 17.130, 0.014,-0.012, 1.039, 170.925 
6592, -2.476, 0.957, 1.520, 48.188, 7.697, 17.130, 0.014,-0.012, 1.039, 170.925 
6603, -2.476, 0.957, 1.520, 48.188, 7.697, 17.130, 0.014,-0.012, 1.039, 170.925 
6614, -2.476, 0.957, 1.520, 48.188, 7.697, 17.130, 0.014,-0.012, 1.039, 170.925 
6625, -2.476, 0.957, 1.520, 48.188, 7.697, 17.130, 0.014,-0.012, 1.039, 170.925 
6636, -2.476, 0.957, 1.520, 48.188, 7.697, 17.130, 0.014,-0.012, 1.039, 170.925 
6647, -2.476, 0.957, 1.520, 48.188, 7.697, 17.130, 0.014,-0.012, 1.039, 170.925 
6658, -2.476, 0.957, 1.520, 48.188, 7.697, 17.130, 0.014,-0.012, 1.039, 170.925 
6669, -2.476, 0.957, 1.520, 48.188, 7.697, 17.130, 0.014,-0.012, 1.039, 170.925 
6681, -2.476, 0.957, 1.520, 48.188, 7.697, 17.130, 0.014,-0.012, 1.039, 170.925 
6694, -2.482, 0.982, 1.477, 48.072, 7.769, 17.015, 0.015,-0.012, 1.039, 170.820 
6705, -2.482, 0.982, 1.477, 48.072, 7.769, 17.015, 0.015,-0.012, 1.039, 170.820 
6716, -2.482, 0.982, 1.477, 48.072, 7.769, 17.015, 0.015,-0.012, 1.039, 170.820 
6727, -2.482, 0.982, 1.477, 48.072, 7.769, 17.015, 0.015,-0.012, 1.039, 170.820 
6739, -2.482, 0.982, 1.477, 48.072, 7.769, 17.015, 0.015,-0.012, 1.039, 170.820 
6750, -2.482, 0.982, 1.477, 48.072, 7.769, 17.015, 0.015,-0.012, 1.039, 170.820 
6761, -2.482, 0.982, 1.477, 48.072, 7.769, 17.015, 0.015,-0.012, 1.039, 170.820 
6772, -2.482, 0.982, 1.477, 48.072, 7.769, 17.015, 0.015,-0.012, 1.039, 170.820 
6783, -2.482, 0.982, 1.477, 48.072, 7.769, 17.015, 0.015,-0.012, 1.039, 170.820 
6795, -2.482, 0.982, 1.477, 48.072, 7.769, 17.015, 0.015,-0.012, 1.039, 170.820 
6808, -2.496, 0.998, 1.481, 47.979, 7.827, 16.922, 0.015,-0.012, 1.040, 170.735 
6819, -2.496, 0.998, 1.481, 47.979, 7.827, 16.922, 0.015,-0.012, 1.040, 170.735 
6830, -2.496, 0.998, 1.481, 47.979, 7.827, 16.922, 0.015,-0.012, 1.040, 170.735 
6841, -2.496, 0.998, 1.481, 47.979, 7.827, 16.922, 0.015,-0.012, 1.040, 170.735 
6852, -2.496, 0.998, 1.481, 47.979, 7.827, 16.922, 0.015,-0.012, 1.040, 170.735 
6864, -2.496, 0.998, 1.481, 47.979, 7.827, 16.922, 0.015,-0.012, 1.040, 170.735 
6875, -2.496, 0.998, 1.481, 47.979, 7.827, 16.922, 0.015,-0.012, 1.040, 170.735 
6886, -2.496, 0.998, 1.481, 47.979, 7.827, 16.922, 0.015,-0.012, 1.040, 170.735 
6897, -2.496, 0.998, 1.481, 47.979, 7.827, 16.922, 0.015,-0.012, 1.040, 170.735 
6908, -2.496, 0.998, 1.481, 47.979, 7.827, 16.922, 0.015,-0.012, 1.040, 170.735 
6920, -2.510, 1.006, 1.493, 48.081, 7.580, 16.907, 0.015,-0.012, 1.039, 171.041 
6931, -2.510, 1.006, 1.493, 48.081, 7.580, 16.907, 0.015,-0.012, 1.039, 171.041 
6942, -2.510, 1.006, 1.493, 48.081, 7.580, 16.907, 0.015,-0.012, 1.039, 171.041 
6953, -2.510, 1.006, 1.493, 48.081, 7.580, 16.907, 0.015,-0.012, 1.039, 171.041 
6964, -2.510, 1.006, 1.493, 48.081, 7.580, 16.907, 0.015,-0.012, 1.039, 171.041 
6975, -2.510, 1.006, 1.493, 48.081, 7.580, 16.907, 0.015,-0.012, 1.039, 171.041 
6986, -2.510, 1.006, 1.493, 48.081, 7.580, 16.907, 0.015,-0.012, 1.039, 171.041 
6997, -2.510, 1.006, 1.493, 48.081, 7.580, 16.907, 0.015,-0.012, 1.039, 171.041 
7008, -2.510, 1.006, 1.493, 48.081, 7.580, 16.907, 0.015,-0.012, 1.039, 171.041 
7019, -2.510, 1.006, 1.493, 48.081, 7.580, 16.907, 0.015,-0.012, 1.039, 171.041 
7030, -2.514, 1.058, 1.532, 48.192, 7.529, 17.159, 0.015,-0.012, 1.039, 171.121 
7041, -2.514, 1.058, 1.532, 48.192, 7.529, 17.159, 0.015,-0.013, 1.039, 171.121 
7052, -2.514, 1.058, 1.532, 48.192, 7.529, 17.159, 0.015,-0.013, 1.039, 171.121 
7063, -2.514, 1.058, 1.532, 48.192, 7.529, 17.159, 0.015,-0.013, 1.039, 171.121 
7074, -2.514, 1.058, 1.532, 48.192, 7.529, 17.159, 0.015,-0.013, 1.039, 171.121 
7086, -2.514, 1.058, 1.532, 48.192, 7.529, 17.159, 0.015,-0.013, 1.039, 171.121 
7097, -2.514, 1.058, 1.532, 48.192, 7.529, 17.159, 0.015,-0.013, 1.039, 171.121 
7108, -2.514, 1.058, 1.532, 48.192, 7.529, 17.159, 0.015,-0.013, 1.039, 171.121 
7119, -2.514, 1.058, 1.532, 48.192, 7.529, 17.159, 0.015,-0.013, 1.039, 171.121 
7130, -2.514, 1.058, 1.532, 48.192, 7.529, 17.159, 0.015,-0.013, 1.039, 171.121 
7142, -2.569, 1.052, 1.535, 48.544, 7.576, 17.272, 0.015,-0.013, 1.039, 171.130 
7153, -2.569, 1.052, 1.535, 48.544, 7.576, 17.272, 0.014,-0.013, 1.039, 171.130 
7164, -2.569, 1.052, 1.535, 48.544, 7.576, 17.272, 0.014,-0.013, 1.039, 171.130 
7175, -2.569, 1.052, 1.535, 48.544, 7.576, 17.272, 0.014,-0.013, 1.039, 171.130 
7186, -2.569, 1.052, 1.535, 48.544, 7.576, 17.272, 0.014,-0.013, 1.039, 171.130 
7197, -2.569, 1.052, 1.535, 48.544, 7.576, 17.272, 0.014,-0.013, 1.039, 171.130 
7208, -2.569, 1.052, 1.535, 48.544, 7.576, 17.272, 0.014,-0.013, 1.039, 171.130 
7220, -2.569, 1.052, 1.535, 48.544, 7.576, 17.272, 0.014,-0.013, 1.039, 171.130 
7231, -2.569, 1.052, 1.535, 48.544, 7.576, 17.272, 0.014,-0.013, 1.039, 171.130 
7242, -2.569, 1.052, 1.535, 48.544, 7.576, 17.272, 0.014,-0.013, 1.039, 171.130 
7254, -2.569, 1.052, 1.535, 48.445, 7.584, 17.275, 0.014,-0.013, 1.039, 171.103 
7266, -2.584, 1.062, 1.556, 48.445, 7.584, 17.275, 0.015,-0.013, 1.039, 171.103 
7277, -2.584, 1.062, 1.556, 48.445, 7.584, 17.275, 0.015,-0.013, 1.039, 171.103 
7288, -2.584, 1.062, 1.556, 48.445, 7.584, 17.275, 0.015,-0.013, 1.039, 171.103 
7299, -2.584, 1.062, 1.556, 48.445, 7.584, 17.275, 0.015,-0.013, 1.039, 171.103 
7310, -2.584, 1.062, 1.556, 48.445, 7.584, 17.275, 0.015,-0.013, 1.039, 171.103 
7321, -2.584, 1.062, 1.556, 48.445, 7.584, 17.275, 0.015,-0.013, 1.039, 171.103 
7332, -2.584, 1.062, 1.556, 48.445, 7.584, 17.275, 0.015,-0.013, 1.039, 171.103 
7343, -2.584, 1.062, 1.556, 48.445, 7.584, 17.275, 0.015,-0.013, 1.039, 171.103 
7354, -2.584, 1.062, 1.556, 48.445, 7.584, 17.275, 0.015,-0.013, 1.039, 171.103 
7370, -2.584, 1.062, 1.556, 48.445, 7.584, 17.275, 0.015,-0.013, 1.039, 171.103 
7381, -2.579, 1.038, 1.568, 48.600, 7.415, 17.453, 0.015,-0.013, 1.038, 171.325 
7392, -2.579, 1.038, 1.568, 48.600, 7.415, 17.453, 0.015,-0.013, 1.038, 171.325 
7403, -2.579, 1.038, 1.568, 48.600, 7.415, 17.453, 0.015,-0.013, 1.038, 171.325 
7413, -2.579, 1.038, 1.568, 48.600, 7.415, 17.453, 0.015,-0.013, 1.038, 171.325 
7424, -2.579, 1.038, 1.568, 48.600, 7.415, 17.453, 0.015,-0.013, 1.038, 171.325 
7435, -2.579, 1.038, 1.568, 48.600, 7.415, 17.453, 0.015,-0.013, 1.038, 171.325 
7446, -2.579, 1.038, 1.568, 48.600, 7.415, 17.453, 0.015,-0.013, 1.038, 171.325 
7458, -2.579, 1.038, 1.568, 48.600, 7.415, 17.453, 0.015,-0.013, 1.038, 171.325 
7469, -2.579, 1.038, 1.568, 48.600, 7.415, 17.453, 0.015,-0.013, 1.038, 171.325 
7481, -2.579, 1.038, 1.568, 48.600, 7.415, 17.453, 0.015,-0.013, 1.038, 171.325 
7492, -2.576, 1.052, 1.519, 48.548, 7.455, 17.419, 0.015,-0.013, 1.038, 171.269 
7504, -2.576, 1.052, 1.519, 48.548, 7.455, 17.419, 0.015,-0.013, 1.038, 171.269 
7515, -2.576, 1.052, 1.519, 48.548, 7.455, 17.419, 0.015,-0.013, 1.038, 171.269 
7526, -2.576, 1.052, 1.519, 48.548, 7.455, 17.419, 0.015,-0.013, 1.038, 171.269 
7537, -2.576, 1.052, 1.519, 48.548, 7.455, 17.419, 0.015,-0.013, 1.038, 171.269 
7549, -2.576, 1.052, 1.519, 48.548, 7.455, 17.419, 0.015,-0.013, 1.038, 171.269 
7560, -2.576, 1.052, 1.519, 48.548, 7.455, 17.419, 0.015,-0.013, 1.038, 171.269 
7571, -2.576, 1.052, 1.519, 48.548, 7.455, 17.419, 0.015,-0.013, 1.038, 171.269 
7582, -2.576, 1.052, 1.519, 48.548, 7.455, 17.419, 0.015,-0.013, 1.038, 171.269 
7593, -2.576, 1.052, 1.519, 48.548, 7.455, 17.419, 0.015,-0.013, 1.038, 171.269 
7604, -2.576, 1.052, 1.519, 48.548, 7.455, 17.419, 0.015,-0.013, 1.038, 171.269 
7619, -2.576, 1.052, 1.543, 48.448, 7.429, 17.275, 0.015,-0.013, 1.038, 171.282 
7630, -2.576, 1.052, 1.543, 48.448, 7.429, 17.275, 0.016,-0.013, 1.039, 171.282 
7641, -2.576, 1.052, 1.543, 48.448, 7.429, 17.275, 0.016,-0.013, 1.039, 171.282 
7652, -2.576, 1.052, 1.543, 48.448, 7.429, 17.275, 0.016,-0.013, 1.039, 171.282 
7663, -2.576, 1.052, 1.543, 48.448, 7.429, 17.275, 0.016,-0.013, 1.039, 171.282 
7674, -2.576, 1.052, 1.543, 48.448, 7.429, 17.275, 0.016,-0.013, 1.039, 171.282 
7685, -2.576, 1.052, 1.543, 48.448, 7.429, 17.275, 0.016,-0.013, 1.039, 171.282 
7696, -2.576, 1.052, 1.543, 48.448, 7.429, 17.275, 0.016,-0.013, 1.039, 171.282 
7708, -2.576, 1.052, 1.543, 48.448, 7.429, 17.275, 0.016,-0.013, 1.039, 171.282 
7719, -2.576, 1.052, 1.543, 48.448, 7.429, 17.275, 0.016,-0.013, 1.039, 171.282 
7731, -2.576, 1.052, 1.543, 48.448, 7.429, 17.275, 0.016,-0.013, 1.039, 171.282 
7744, -2.554, 1.094, 1.537, 48.485, 7.291, 17.336, 0.015,-0.012, 1.038, 171.448 
7755, -2.554, 1.094, 1.537, 48.485, 7.291, 17.336, 0.015,-0.012, 1.038, 171.448 
7766, -2.554, 1.094, 1.537, 48.485, 7.291, 17.336, 0.015,-0.012, 1.038, 171.448 
7777, -2.554, 1.094, 1.537, 48.485, 7.291, 17.336, 0.015,-0.012, 1.038, 171.448 
7788, -2.554, 1.094, 1.537, 48.485, 7.291, 17.336, 0.015,-0.012, 1.038, 171.448 
7799, -2.554, 1.094, 1.537, 48.485, 7.291, 17.336, 0.015,-0.012, 1.038, 171.448 
7810, -2.554, 1.094, 1.537, 48.485, 7.291, 17.336, 0.015,-0.012, 1.038, 171.448 
7821, -2.554, 1.094, 1.537, 48.485, 7.291, 17.336, 0.015,-0.012, 1.038, 171.448 
7834, -2.554, 1.094, 1.537, 48.485, 7.291, 17.336, 0.015,-0.012, 1.038, 171.448 
7845, -2.554, 1.094, 1.537, 48.485, 7.291, 17.336, 0.015,-0.012, 1.038, 171.448 
7856, -2.480, 1.063, 1.606, 48.515, 7.591, 17.560, 0.014,-0.012, 1.038, 171.108 
7867, -2.480, 1.063, 1.606, 48.515, 7.591, 17.560, 0.014,-0.012, 1.038, 171.108 
7878, -2.480, 1.063, 1.606, 48.515, 7.591, 17.560, 0.014,-0.012, 1.038, 171.108 
7889, -2.480, 1.063, 1.606, 48.515, 7.591, 17.560, 0.014,-0.012, 1.038, 171.108 
7900, -2.480, 1.063, 1.606, 48.515, 7.591, 17.560, 0.014,-0.012, 1.038, 171.108 
7911, -2.480, 1.063, 1.606, 48.515, 7.591, 17.560, 0.014,-0.012, 1.038, 171.108 
7922, -2.480, 1.063, 1.606, 48.515, 7.591, 17.560, 0.014,-0.012, 1.038, 171.108 
7933, -2.480, 1.063, 1.606, 48.515, 7.591, 17.560, 0.014,-0.012, 1.038, 171.108 
7944, -2.480, 1.063, 1.606, 48.515, 7.591, 17.560, 0.014,-0.012, 1.038, 171.108 
7956, -2.480, 1.063, 1.606, 48.515, 7.591, 17.560, 0.014,-0.012, 1.038, 171.108 
7967, -2.469, 1.068, 1.605, 48.744, 7.508, 17.652, 0.014,-0.013, 1.038, 171.243 
7979, -2.469, 1.068, 1.605, 48.744, 7.508, 17.652, 0.014,-0.013, 1.038, 171.243 
7989, -2.469, 1.068, 1.605, 48.744, 7.508, 17.652, 0.014,-0.013, 1.038, 171.243 
8000, -2.469, 1.068, 1.605, 48.744, 7.508, 17.652, 0.014,-0.013, 1.038, 171.243 
8012, -2.469, 1.068, 1.605, 48.744, 7.508, 17.652, 0.014,-0.013, 1.038, 171.243 
8023, -2.469, 1.068, 1.605, 48.744, 7.508, 17.652, 0.014,-0.013, 1.038, 171.243 
8034, -2.469, 1.068, 1.605, 48.744, 7.508, 17.652, 0.014,-0.013, 1.038, 171.243 
8045, -2.469, 1.068, 1.605, 48.744, 7.508, 17.652, 0.014,-0.013, 1.038, 171.243 
8056, -2.469, 1.068, 1.605, 48.744, 7.508, 17.652, 0.014,-0.013, 1.038, 171.243 
8068, -2.469, 1.068, 1.605, 48.744, 7.508, 17.652, 0.014,-0.013, 1.038, 171.243 
8079, -2.508, 1.044, 1.594, 48.605, 7.647, 17.520, 0.014,-0.013, 1.038, 171.059 
8090, -2.508, 1.044, 1.594, 48.605, 7.647, 17.520, 0.015,-0.013, 1.038, 171.059 
8101, -2.508, 1.044, 1.594, 48.605, 7.647, 17.520, 0.015,-0.013, 1.038, 171.059 
8112, -2.508, 1.044, 1.594, 48.605, 7.647, 17.520, 0.015,-0.013, 1.038, 171.059 
8123, -2.508, 1.044, 1.594, 48.605, 7.647, 17.520, 0.015,-0.013, 1.038, 171.059 
8134, -2.508, 1.044, 1.594, 48.605, 7.647, 17.520, 0.015,-0.013, 1.038, 171.059 
8145, -2.508, 1.044, 1.594, 48.605, 7.647, 17.520, 0.015,-0.013, 1.038, 171.059 
8156, -2.508, 1.044, 1.594, 48.605, 7.647, 17.520, 0.015,-0.013, 1.038, 171.059 
8167, -2.508, 1.044, 1.594, 48.605, 7.647, 17.520, 0.015,-0.013, 1.038, 171.059 
8180, -2.508, 1.044, 1.594, 48.605, 7.647, 17.520, 0.015,-0.013, 1.038, 171.059 
8191, -2.525, 1.032, 1.609, 48.552, 7.524, 17.473, 0.015,-0.013, 1.038, 171.191 
8202, -2.525, 1.032, 1.609, 48.552, 7.524, 17.473, 0.015,-0.014, 1.038, 171.191 
8213, -2.525, 1.032, 1.609, 48.552, 7.524, 17.473, 0.015,-0.014, 1.038, 171.191 
8224, -2.525, 1.032, 1.609, 48.552, 7.524, 17.473, 0.015,-0.014, 1.038, 171.191 
8235, -2.525, 1.032, 1.609, 48.552, 7.524, 17.473, 0.015,-0.014, 1.038, 171.191 
8246, -2.525, 1.032, 1.609, 48.552, 7.524, 17.473, 0.015,-0.014, 1.038, 171.191 
8258, -2.525, 1.032, 1.609, 48.552, 7.524, 17.473, 0.015,-0.014, 1.038, 171.191 
8269, -2.525, 1.032, 1.609, 48.552, 7.524, 17.473, 0.015,-0.014, 1.038, 171.191 
8280, -2.525, 1.032, 1.609, 48.552, 7.524, 17.473, 0.015,-0.014, 1.038, 171.191 
8291, -2.525, 1.032, 1.609, 48.552, 7.524, 17.473, 0.015,-0.014, 1.038, 171.191 
8304, -2.525, 1.032, 1.609, 48.539, 7.513, 17.758, 0.015,-0.014, 1.038, 171.201 
8315, -2.514, 1.033, 1.553, 48.539, 7.513, 17.758, 0.014,-0.014, 1.038, 171.201 
8326, -2.514, 1.033, 1.553, 48.539, 7.513, 17.758, 0.014,-0.014, 1.038, 171.201 
8337, -2.514, 1.033, 1.553, 48.539, 7.513, 17.758, 0.014,-0.014, 1.038, 171.201 
8348, -2.514, 1.033, 1.553, 48.539, 7.513, 17.758, 0.014,-0.014, 1.038, 171.201 
8359, -2.514, 1.033, 1.553, 48.539, 7.513, 17.758, 0.014,-0.014, 1.038, 171.201 
8370, -2.514, 1.033, 1.553, 48.539, 7.513, 17.758, 0.014,-0.014, 1.038, 171.201 
8381, -2.514, 1.033, 1.553, 48.539, 7.513, 17.758, 0.014,-0.014, 1.038, 171.201 
8392, -2.514, 1.033, 1.553, 48.539, 7.513, 17.758, 0.014,-0.014, 1.038, 171.201 
8403, -2.514, 1.033, 1.553, 48.539, 7.513, 17.758, 0.014,-0.014, 1.038, 171.201 
8414, -2.514, 1.033, 1.553, 48.529, 7.505, 17.986, 0.014,-0.014, 1.038, 171.209 
8425, -2.546, 1.031, 1.552, 48.529, 7.505, 17.986, 0.015,-0.014, 1.039, 171.209 
8436, -2.546, 1.031, 1.552, 48.529, 7.505, 17.986, 0.015,-0.014, 1.039, 171.209 
8447, -2.546, 1.031, 1.552, 48.529, 7.505, 17.986, 0.015,-0.014, 1.039, 171.209 
8458, -2.546, 1.031, 1.552, 48.529, 7.505, 17.986, 0.015,-0.014, 1.039, 171.209 
8469, -2.546, 1.031, 1.552, 48.529, 7.505, 17.986, 0.015,-0.014, 1.039, 171.209 
8480, -2.546, 1.031, 1.552, 48.529, 7.505, 17.986, 0.015,-0.014, 1.039, 171.209 
8491, -2.546, 1.031, 1.552, 48.529, 7.505, 17.986, 0.015,-0.014, 1.039, 171.209 
8502, -2.546, 1.031, 1.552, 48.529, 7.505, 17.986, 0.015,-0.014, 1.039, 171.209 
8513, -2.546, 1.031, 1.552, 48.529, 7.505, 17.986, 0.015,-0.014, 1.039, 171.209 
8524, -2.546, 1.031, 1.552, 48.529, 7.505, 17.986, 0.015,-0.014, 1.039, 171.209 
8541, -2.537, 1.055, 1.605, 48.521, 7.498, 18.168, 0.015,-0.014, 1.040, 171.215 
8552, -2.537, 1.055, 1.605, 48.521, 7.498, 18.168, 0.015,-0.014, 1.040, 171.215 
8563, -2.537, 1.055, 1.605, 48.521, 7.498, 18.168, 0.015,-0.014, 1.040, 171.215 
8573, -2.537, 1.055, 1.605, 48.521, 7.498, 18.168, 0.015,-0.014, 1.040, 171.215 
8584, -2.537, 1.055, 1.605, 48.521, 7.498, 18.168, 0.015,-0.014, 1.040, 171.215 
8596, -2.537, 1.055, 1.605, 48.521, 7.498, 18.168, 0.015,-0.014, 1.040, 171.215 
8607, -2.537, 1.055, 1.605, 48.521, 7.498, 18.168, 0.015,-0.014, 1.040, 171.215 
8618, -2.537, 1.055, 1.605, 48.521, 7.498, 18.168, 0.015,-0.014, 1.040, 171.215 
8629, -2.537, 1.055, 1.605, 48.521, 7.498, 18.168, 0.015,-0.014, 1.040, 171.215 
8640, -2.537, 1.055, 1.605, 48.521, 7.498, 18.168, 0.015,-0.014, 1.040, 171.215 
8651, -2.537, 1.055, 1.605, 48.631, 7.376, 18.079, 0.015,-0.014, 1.040, 171.376 
8662, -2.542, 1.059, 1.585, 48.631, 7.376, 18.079, 0.016,-0.014, 1.040, 171.376 
8673, -2.542, 1.059, 1.585, 48.631, 7.376, 18.079, 0.016,-0.014, 1.040, 171.376 
8684, -2.542, 1.059, 1.585, 48.631, 7.376, 18.079, 0.016,-0.014, 1.040, 171.376 
8695, -2.542, 1.059, 1.585, 48.631, 7.376, 18.079, 0.016,-0.014, 1.040, 171.376 
8706, -2.542, 1.059, 1.585, 48.631, 7.376, 18.079, 0.016,-0.014, 1.040, 171.376 
8718, -2.542, 1.059, 1.585, 48.631, 7.376, 18.079, 0.016,-0.014, 1.040, 171.376 
8729, -2.542, 1.059, 1.585, 48.631, 7.376, 18.079, 0.016,-0.014, 1.040, 171.376 
8740, -2.542, 1.059, 1.585, 48.631, 7.376, 18.079, 0.016,-0.014, 1.040, 171.376 
8751, -2.542, 1.059, 1.585, 48.631, 7.376, 18.079, 0.016,-0.014, 1.040, 171.376 
8762, -2.542, 1.059, 1.585, 48.631, 7.376, 18.079, 0.016,-0.014, 1.040, 171.376 
8774, -2.513, 1.061, 1.565, 48.632, 7.600, 17.921, 0.016,-0.014, 1.040, 171.118 
8785, -2.513, 1.061, 1.565, 48.632, 7.600, 17.921, 0.016,-0.014, 1.040, 171.118 
8796, -2.513, 1.061, 1.565, 48.632, 7.600, 17.921, 0.016,-0.014, 1.040, 171.118 
8807, -2.513, 1.061, 1.565, 48.632, 7.600, 17.921, 0.016,-0.014, 1.040, 171.118 
8818, -2.513, 1.061, 1.565, 48.632, 7.600, 17.921, 0.016,-0.014, 1.040, 171.118 
8829, -2.513, 1.061, 1.565, 48.632, 7.600, 17.921, 0.016,-0.014, 1.040, 171.118 
8840, -2.513, 1.061, 1.565, 48.632, 7.600, 17.921, 0.016,-0.014, 1.040, 171.118 
8851, -2.513, 1.061, 1.565, 48.632, 7.600, 17.921, 0.016,-0.014, 1.040, 171.118 
8862, -2.513, 1.061, 1.565, 48.632, 7.600, 17.921, 0.016,-0.014, 1.040, 171.118 
8873, -2.513, 1.061, 1.565, 48.632, 7.600, 17.921, 0.016,-0.014, 1.040, 171.118 
8885, -2.506, 1.062, 1.617, 48.486, 7.281, 17.706, 0.015,-0.013, 1.039, 171.460 
8896, -2.506, 1.062, 1.617, 48.486, 7.281, 17.706, 0.015,-0.013, 1.039, 171.460 
8907, -2.506, 1.062, 1.617, 48.486, 7.281, 17.706, 0.015,-0.013, 1.039, 171.460 
8918, -2.506, 1.062, 1.617, 48.486, 7.281, 17.706, 0.015,-0.013, 1.039, 171.460 
8930, -2.506, 1.062, 1.617, 48.486, 7.281, 17.706, 0.015,-0.013, 1.039, 171.460 
8941, -2.506, 1.062, 1.617, 48.486, 7.281, 17.706, 0.015,-0.013, 1.039, 171.460 
8952, -2.506, 1.062, 1.617, 48.486, 7.281, 17.706, 0.015,-0.013, 1.039, 171.460 
8963, -2.506, 1.062, 1.617, 48.486, 7.281, 17.706, 0.015,-0.013, 1.039, 171.460 
8974, -2.506, 1.062, 1.617, 48.486, 7.281, 17.706, 0.015,-0.013, 1.039, 171.460 
8985, -2.506, 1.062, 1.617, 48.486, 7.281, 17.706, 0.015,-0.013, 1.039, 171.460 
8996, -2.495, 1.032, 1.608, 48.164, 7.290, 17.680, 0.015,-0.013, 1.039, 171.394 
9008, -2.495, 1.032, 1.608, 48.164, 7.290, 17.680, 0.015,-0.012, 1.038, 171.394 
9019, -2.495, 1.032, 1.608, 48.164, 7.290, 17.680, 0.015,-0.012, 1.038, 171.394 
9030, -2.495, 1.032, 1.608, 48.164, 7.290, 17.680, 0.015,-0.012, 1.038, 171.394 
9041, -2.495, 1.032, 1.608, 48.164, 7.290, 17.680, 0.015,-0.012, 1.038, 171.394 
9052, -2.495, 1.032, 1.608, 48.164, 7.290, 17.680, 0.015,-0.012, 1.038, 171.394 
9063, -2.495, 1.032, 1.608, 48.164, 7.290, 17.680, 0.015,-0.012, 1.038, 171.394 
9074, -2.495, 1.032, 1.608, 48.164, 7.290, 17.680, 0.015,-0.012, 1.038, 171.394 
9085, -2.495, 1.032, 1.608, 48.164, 7.290, 17.680, 0.015,-0.012, 1.038, 171.394 
9097, -2.495, 1.032, 1.608, 48.164, 7.290, 17.680, 0.015,-0.012, 1.038, 171.394 
9110, -2.467, 0.982, 1.581, 48.258, 7.414, 17.660, 0.015,-0.012, 1.038, 171.266 
9120, -2.467, 0.982, 1.581, 48.258, 7.414, 17.660, 0.015,-0.012, 1.038, 171.266 
9131, -2.467, 0.982, 1.581, 48.258, 7.414, 17.660, 0.015,-0.012, 1.038, 171.266 
9142, -2.467, 0.982, 1.581, 48.258, 7.414, 17.660, 0.015,-0.012, 1.038, 171.266 
9153, -2.467, 0.982, 1.581, 48.258, 7.414, 17.660, 0.015,-0.012, 1.038, 171.266 
9164, -2.467, 0.982, 1.581, 48.258, 7.414, 17.660, 0.015,-0.012, 1.038, 171.266 
9175, -2.467, 0.982, 1.581, 48.258, 7.414, 17.660, 0.015,-0.012, 1.038, 171.266 
9186, -2.467, 0.982, 1.581, 48.258, 7.414, 17.660, 0.015,-0.012, 1.038, 171.266 
9198, -2.467, 0.982, 1.581, 48.258, 7.414, 17.660, 0.015,-0.012, 1.038, 171.266 
9209, -2.467, 0.982, 1.581, 48.258, 7.414, 17.660, 0.015,-0.012, 1.038, 171.266 
9220, -2.424, 0.969, 1.597, 48.363, 7.367, 17.673, 0.015,-0.012, 1.038, 171.339 
9231, -2.424, 0.969, 1.597, 48.363, 7.367, 17.673, 0.016,-0.012, 1.039, 171.339 
9242, -2.424, 0.969, 1.597, 48.363, 7.367, 17.673, 0.016,-0.012, 1.039, 171.339 
9253, -2.424, 0.969, 1.597, 48.363, 7.367, 17.673, 0.016,-0.012, 1.039, 171.339 
9264, -2.424, 0.969, 1.597, 48.363, 7.367, 17.673, 0.016,-0.012, 1.039, 171.339 
9275, -2.424, 0.969, 1.597, 48.363, 7.367, 17.673, 0.016,-0.012, 1.039, 171.339 
9286, -2.424, 0.969, 1.597, 48.363, 7.367, 17.673, 0.016,-0.012, 1.039, 171.339 
9298, -2.424, 0.969, 1.597, 48.363, 7.367, 17.673, 0.016,-0.012, 1.039, 171.339 
9309, -2.424, 0.969, 1.597, 48.363, 7.367, 17.673, 0.016,-0.012, 1.039, 171.339 
9320, -2.424, 0.969, 1.597, 48.363, 7.367, 17.673, 0.016,-0.012, 1.039, 171.339 
9331, -2.424, 0.969, 1.597, 48.388, 7.563, 17.801, 0.016,-0.012, 1.039, 171.116 
9342, -2.482, 1.006, 1.479, 48.388, 7.563, 17.801, 0.015,-0.012, 1.039, 171.116 
9353, -2.482, 1.006, 1.479, 48.388, 7.563, 17.801, 0.015,-0.012, 1.039, 171.116 
9364, -2.482, 1.006, 1.479, 48.388, 7.563, 17.801, 0.015,-0.012, 1.039, 171.116 
9375, -2.482, 1.006, 1.479, 48.388, 7.563, 17.801, 0.015,-0.012, 1.039, 171.116 
9386, -2.482, 1.006, 1.479, 48.388, 7.563, 17.801, 0.015,-0.012, 1.039, 171.116 
9397, -2.482, 1.006, 1.479, 48.388, 7.563, 17.801, 0.015,-0.012, 1.039, 171.116 
9408, -2.482, 1.006, 1.479, 48.388, 7.563, 17.801, 0.015,-0.012, 1.039, 171.116 
9419, -2.482, 1.006, 1.479, 48.388, 7.563, 17.801, 0.015,-0.012, 1.039, 171.116 
9430, -2.482, 1.006, 1.479, 48.388, 7.563, 17.801, 0.015,-0.012, 1.039, 171.116 
9443, -2.482, 1.006, 1.479, 48.466, 7.369, 17.727, 0.015,-0.012, 1.039, 171.355 
9454, -2.485, 0.985, 1.484, 48.466, 7.369, 17.727, 0.015,-0.012, 1.037, 171.355 
9465, -2.485, 0.985, 1.484, 48.466, 7.369, 17.727, 0.015,-0.012, 1.037, 171.355 
9476, -2.485, 0.985, 1.484, 48.466, 7.369, 17.727, 0.015,-0.012, 1.037, 171.355 
9486, -2.485, 0.985, 1.484, 48.466, 7.369, 17.727, 0.015,-0.012, 1.037, 171.355 
9498, -2.485, 0.985, 1.484, 48.466, 7.369, 17.727, 0.015,-0.012, 1.037, 171.355 
9509, -2.485, 0.985, 1.484, 48.466, 7.369, 17.727, 0.015,-0.012, 1.037, 171.355 
9520, -2.485, 0.985, 1.484, 48.466, 7.369, 17.727, 0.015,-0.012, 1.037, 171.355 
9531, -2.485, 0.985, 1.484, 48.466, 7.369, 17.727, 0.015,-0.012, 1.037, 171.355 
9542, -2.485, 0.985, 1.484, 48.466, 7.369, 17.727, 0.015,-0.012, 1.037, 171.355 
9554, -2.485, 0.985, 1.484, 48.466, 7.369, 17.727, 0.015,-0.012, 1.037, 171.355 
9565, -2.519, 0.971, 1.517, 48.500, 7.712, 17.697, 0.015,-0.012, 1.037, 170.965 
9577, -2.519, 0.971, 1.517, 48.500, 7.712, 17.697, 0.016,-0.011, 1.036, 170.965 
9588, -2.519, 0.971, 1.517, 48.500, 7.712, 17.697, 0.016,-0.011, 1.036, 170.965 
9599, -2.519, 0.971, 1.517, 48.500, 7.712, 17.697, 0.016,-0.011, 1.036, 170.965 
9610, -2.519, 0.971, 1.517, 48.500, 7.712, 17.697, 0.016,-0.011, 1.036, 170.965 
9621, -2.519, 0.971, 1.517, 48.500, 7.712, 17.697, 0.016,-0.011, 1.036, 170.965 
9632, -2.519, 0.971, 1.517, 48.500, 7.712, 17.697, 0.016,-0.011, 1.036, 170.965 
9643, -2.519, 0.971, 1.517, 48.500, 7.712, 17.697, 0.016,-0.011, 1.036, 170.965 
9654, -2.519, 0.971, 1.517, 48.500, 7.712, 17.697, 0.016,-0.011, 1.036, 170.965 
9666, -2.519, 0.971, 1.517, 48.500, 7.712, 17.697, 0.016,-0.011, 1.036, 170.965 
9678, -2.519, 0.971, 1.517, 48.500, 7.712, 17.697, 0.016,-0.011, 1.036, 170.965 
9692, -2.528, 0.948, 1.491, 48.380, 7.722, 17.410, 0.015,-0.012, 1.038, 170.931 
9703, -2.528, 0.948, 1.491, 48.380, 7.722, 17.410, 0.015,-0.012, 1.038, 170.931 
9714, -2.528, 0.948, 1.491, 48.380, 7.722, 17.410, 0.015,-0.012, 1.038, 170.931 
9724, -2.528, 0.948, 1.491, 48.380, 7.722, 17.410, 0.015,-0.012, 1.038, 170.931 
9735, -2.528, 0.948, 1.491, 48.380, 7.722, 17.410, 0.015,-0.012, 1.038, 170.931 
9747, -2.528, 0.948, 1.491, 48.380, 7.722, 17.410, 0.015,-0.012, 1.038, 170.931 
9758, -2.528, 0.948, 1.491, 48.380, 7.722, 17.410, 0.015,-0.012, 1.038, 170.931 
9769, -2.528, 0.948, 1.491, 48.380, 7.722, 17.410, 0.015,-0.012, 1.038, 170.931 
9780, -2.528, 0.948, 1.491, 48.380, 7.722, 17.410, 0.015,-0.012, 1.038, 170.931 
9791, -2.528, 0.948, 1.491, 48.380, 7.722, 17.410, 0.015,-0.012, 1.038, 170.931 
9804, -2.523, 0.941, 1.498, 48.519, 7.730, 17.649, 0.015,-0.012, 1.038, 170.947 
9815, -2.523, 0.941, 1.498, 48.519, 7.730, 17.649, 0.015,-0.012, 1.038, 170.947 
9826, -2.523, 0.941, 1.498, 48.519, 7.730, 17.649, 0.015,-0.012, 1.038, 170.947 
9837, -2.523, 0.941, 1.498, 48.519, 7.730, 17.649, 0.015,-0.012, 1.038, 170.947 
9848, -2.523, 0.941, 1.498, 48.519, 7.730, 17.649, 0.015,-0.012, 1.038, 170.947 
9859, -2.523, 0.941, 1.498, 48.519, 7.730, 17.649, 0.015,-0.012, 1.038, 170.947 
9870, -2.523, 0.941, 1.498, 48.519, 7.730, 17.649, 0.015,-0.012, 1.038, 170.947 
9881, -2.523, 0.941, 1.498, 48.519, 7.730, 17.649, 0.015,-0.012, 1.038, 170.947 
9892, -2.523, 0.941, 1.498, 48.519, 7.730, 17.649, 0.015,-0.012, 1.038, 170.947 
9903, -2.523, 0.941, 1.498, 48.519, 7.730, 17.649, 0.015,-0.012, 1.038, 170.947 
9917, -2.493, 0.959, 1.505, 48.513, 7.796, 17.664, 0.015,-0.012, 1.038, 170.871 
9928, -2.493, 0.959, 1.505, 48.513, 7.796, 17.664, 0.015,-0.012, 1.039, 170.871 
9939, -2.493, 0.959, 1.505, 48.513, 7.796, 17.664, 0.015,-0.012, 1.039, 170.871 
9950, -2.493, 0.959, 1.505, 48.513, 7.796, 17.664, 0.015,-0.012, 1.039, 170.871 
9961, -2.493, 0.959, 1.505, 48.513, 7.796, 17.664, 0.015,-0.012, 1.039, 170.871 
9972, -2.493, 0.959, 1.505, 48.513, 7.796, 17.664, 0.015,-0.012, 1.039, 170.871 
9983, -2.493, 0.959, 1.505, 48.513, 7.796, 17.664, 0.015,-0.012, 1.039, 170.871 
9994, -2.493, 0.959, 1.505, 48.513, 7.796, 17.664, 0.015,-0.012, 1.039, 170.871 
10005, -2.493, 0.959, 1.505, 48.513, 7.796, 17.664, 0.015,-0.012, 1.039, 170.871 
10017, -2.493, 0.959, 1.505, 48.513, 7.796, 17.664, 0.015,-0.012, 1.039, 170.871 
10028, -2.493, 0.959, 1.505, 48.508, 7.848, 17.676, 0.015,-0.012, 1.039, 170.810 
10040, -2.505, 0.949, 1.522, 48.508, 7.848, 17.676, 0.015,-0.012, 1.039, 170.810 
10051, -2.505, 0.949, 1.522, 48.508, 7.848, 17.676, 0.015,-0.012, 1.039, 170.810 
10062, -2.505, 0.949, 1.522, 48.508, 7.848, 17.676, 0.015,-0.012, 1.039, 170.810 
10073, -2.505, 0.949, 1.522, 48.508, 7.848, 17.676, 0.015,-0.012, 1.039, 170.810 
10084, -2.505, 0.949, 1.522, 48.508, 7.848, 17.676, 0.015,-0.012, 1.039, 170.810 
10095, -2.505, 0.949, 1.522, 48.508, 7.848, 17.676, 0.015,-0.012, 1.039, 170.810 
10106, -2.505, 0.949, 1.522, 48.508, 7.848, 17.676, 0.015,-0.012, 1.039, 170.810 
10117, -2.505, 0.949, 1.522, 48.508, 7.848, 17.676, 0.015,-0.012, 1.039, 170.810 
10128, -2.505, 0.949, 1.522, 48.508, 7.848, 17.676, 0.015,-0.012, 1.039, 170.810 
10140, -2.505, 0.949, 1.522, 48.508, 7.848, 17.676, 0.015,-0.012, 1.039, 170.810 
10153, -2.511, 0.907, 1.587, 48.504, 7.890, 17.686, 0.015,-0.013, 1.041, 170.761 
10164, -2.511, 0.907, 1.587, 48.504, 7.890, 17.686, 0.015,-0.013, 1.041, 170.761 
10174, -2.511, 0.907, 1.587, 48.504, 7.890, 17.686, 0.015,-0.013, 1.041, 170.761 
10185, -2.511, 0.907, 1.587, 48.504, 7.890, 17.686, 0.015,-0.013, 1.041, 170.761 
10196, -2.511, 0.907, 1.587, 48.504, 7.890, 17.686, 0.015,-0.013, 1.041, 170.761 
10207, -2.511, 0.907, 1.587, 48.504, 7.890, 17.686, 0.015,-0.013, 1.041, 170.761 
10218, -2.511, 0.907, 1.587, 48.504, 7.890, 17.686, 0.015,-0.013, 1.041, 170.761 
10230, -2.511, 0.907, 1.587, 48.504, 7.890, 17.686, 0.015,-0.013, 1.041, 170.761 
10241, -2.511, 0.907, 1.587, 48.504, 7.890, 17.686, 0.015,-0.013, 1.041, 170.761 
10254, -2.511, 0.907, 1.587, 48.504, 7.890, 17.686, 0.015,-0.013, 1.041, 170.761 
10266, -2.552, 0.890, 1.603, 48.501, 7.923, 17.694, 0.016,-0.012, 1.040, 170.722 
10277, -2.552, 0.890, 1.603, 48.501, 7.923, 17.694, 0.016,-0.012, 1.040, 170.722 
10288, -2.552, 0.890, 1.603, 48.501, 7.923, 17.694, 0.016,-0.012, 1.040, 170.722 
10299, -2.552, 0.890, 1.603, 48.501, 7.923, 17.694, 0.016,-0.012, 1.040, 170.722 
10310, -2.552, 0.890, 1.603, 48.501, 7.923, 17.694, 0.016,-0.012, 1.040, 170.722 
10322, -2.552, 0.890, 1.603, 48.501, 7.923, 17.694, 0.016,-0.012, 1.040, 170.722 
imu9250 main loop terminated
