imu9250 monitor started
time, gx, gy, gz, mx, my, mz, ax, ay, az, comp
1,  0.000, 0.000, 0.000, 0.000, 0.000, 0.000, 0.000, 0.000, 0.000, 90.000 
12,  0.000, 0.000, 0.000, 0.000, 0.000, 0.000, 0.000, 0.000, 0.000, 90.000 
23,  0.000, 0.000, 0.000, 0.000, 0.000, 0.000, 0.000, 0.000, 0.000, 90.000 
34,  0.000, 0.000, 0.000, 0.000, 0.000, 0.000, 0.000, 0.000, 0.000, 90.000 
45,  0.000, 0.000, 0.000, 0.000, 0.000, 0.000, 0.000, 0.000, 0.000, 90.000 
56,  0.000, 0.000, 0.000, 0.000, 0.000, 0.000, 0.000, 0.000, 0.000, 90.000 
67,  0.000, 0.000, 0.000, 0.000, 0.000, 0.000, 0.000, 0.000, 0.000, 90.000 
79,  0.000, 0.000, 0.000, 0.000, 0.000, 0.000, 0.000, 0.000, 0.000, 90.000 
89,  0.000, 0.000, 0.000, 0.000, 0.000, 0.000, 0.000, 0.000, 0.000, 90.000 
100,  0.000, 0.000, 0.000, 0.000, 0.000, 0.000, 0.000, 0.000, 0.000, 90.000 
112, -0.478, 0.189, 0.255, 7.940,-3.252, 3.252, 0.003, 0.003, 0.207, 202.274 
123, -0.478, 0.189, 0.255, 7.940,-3.252, 3.252, 0.003, 0.003, 0.207, 202.274 
134, -0.478, 0.189, 0.255, 7.940,-3.252, 3.252, 0.003, 0.003, 0.207, 202.274 
145, -0.478, 0.189, 0.255, 7.940,-3.252, 3.252, 0.003, 0.003, 0.207, 202.274 
156, -0.478, 0.189, 0.255, 7.940,-3.252, 3.252, 0.003, 0.003, 0.207, 202.274 
167, -0.478, 0.189, 0.255, 7.940,-3.252, 3.252, 0.003, 0.003, 0.207, 202.274 
180, -0.478, 0.189, 0.255, 7.940,-3.252, 3.252, 0.003, 0.003, 0.207, 202.274 
191, -0.478, 0.189, 0.255, 7.940,-3.252, 3.252, 0.003, 0.003, 0.207, 202.274 
202, -0.478, 0.189, 0.255, 7.940,-3.252, 3.252, 0.003, 0.003, 0.207, 202.274 
212, -0.478, 0.189, 0.255, 7.940,-3.252, 3.252, 0.003, 0.003, 0.207, 202.274 
224, -0.892, 0.327, 0.442, 14.409,-5.561, 5.912, 0.005, 0.005, 0.373, 201.103 
235, -0.892, 0.327, 0.442, 14.409,-5.561, 5.912, 0.005, 0.005, 0.373, 201.103 
246, -0.892, 0.327, 0.442, 14.409,-5.561, 5.912, 0.005, 0.005, 0.373, 201.103 
257, -0.892, 0.327, 0.442, 14.409,-5.561, 5.912, 0.005, 0.005, 0.373, 201.103 
269, -0.892, 0.327, 0.442, 14.409,-5.561, 5.912, 0.005, 0.005, 0.373, 201.103 
280, -0.892, 0.327, 0.442, 14.409,-5.561, 5.912, 0.005, 0.005, 0.373, 201.103 
292, -0.892, 0.327, 0.442, 14.409,-5.561, 5.912, 0.005, 0.005, 0.373, 201.103 
303, -0.892, 0.327, 0.442, 14.409,-5.561, 5.912, 0.005, 0.005, 0.373, 201.103 
314, -0.892, 0.327, 0.442, 14.409,-5.561, 5.912, 0.005, 0.005, 0.373, 201.103 
325, -0.892, 0.327, 0.442, 14.409,-5.561, 5.912, 0.005, 0.005, 0.373, 201.103 
338, -1.251, 0.423, 0.575, 19.613,-7.496, 8.011, 0.006, 0.007, 0.506, 200.915 
349, -1.251, 0.423, 0.575, 19.613,-7.496, 8.011, 0.006, 0.007, 0.506, 200.915 
360, -1.251, 0.423, 0.575, 19.613,-7.496, 8.011, 0.006, 0.007, 0.506, 200.915 
371, -1.251, 0.423, 0.575, 19.613,-7.496, 8.011, 0.006, 0.007, 0.506, 200.915 
382, -1.251, 0.423, 0.575, 19.613,-7.496, 8.011, 0.006, 0.007, 0.506, 200.915 
393, -1.251, 0.423, 0.575, 19.613,-7.496, 8.011, 0.006, 0.007, 0.506, 200.915 
404, -1.251, 0.423, 0.575, 19.613,-7.496, 8.011, 0.006, 0.007, 0.506, 200.915 
415, -1.251, 0.423, 0.575, 19.613,-7.496, 8.011, 0.006, 0.007, 0.506, 200.915 
426, -1.251, 0.423, 0.575, 19.613,-7.496, 8.011, 0.006, 0.007, 0.506, 200.915 
437, -1.251, 0.423, 0.575, 23.835,-9.219, 9.749, 0.006, 0.007, 0.506, 201.146 
451, -1.516, 0.560, 0.706, 23.835,-9.219, 9.749, 0.008, 0.008, 0.613, 201.146 
462, -1.516, 0.560, 0.706, 23.835,-9.219, 9.749, 0.008, 0.008, 0.613, 201.146 
473, -1.516, 0.560, 0.706, 23.835,-9.219, 9.749, 0.008, 0.008, 0.613, 201.146 
484, -1.516, 0.560, 0.706, 23.835,-9.219, 9.749, 0.008, 0.008, 0.613, 201.146 
495, -1.516, 0.560, 0.706, 23.835,-9.219, 9.749, 0.008, 0.008, 0.613, 201.146 
507, -1.516, 0.560, 0.706, 23.835,-9.219, 9.749, 0.008, 0.008, 0.613, 201.146 
518, -1.516, 0.560, 0.706, 23.835,-9.219, 9.749, 0.008, 0.008, 0.613, 201.146 
529, -1.516, 0.560, 0.706, 23.835,-9.219, 9.749, 0.008, 0.008, 0.613, 201.146 
540, -1.516, 0.560, 0.706, 23.835,-9.219, 9.749, 0.008, 0.008, 0.613, 201.146 
551, -1.659, 0.645, 0.793, 27.037,-10.481, 11.080, 0.008, 0.008, 0.613, 201.189 
562, -1.659, 0.645, 0.793, 27.037,-10.481, 11.080, 0.010, 0.009, 0.699, 201.189 
573, -1.659, 0.645, 0.793, 27.037,-10.481, 11.080, 0.010, 0.009, 0.699, 201.189 
584, -1.659, 0.645, 0.793, 27.037,-10.481, 11.080, 0.010, 0.009, 0.699, 201.189 
596, -1.659, 0.645, 0.793, 27.037,-10.481, 11.080, 0.010, 0.009, 0.699, 201.189 
607, -1.659, 0.645, 0.793, 27.037,-10.481, 11.080, 0.010, 0.009, 0.699, 201.189 
618, -1.659, 0.645, 0.793, 27.037,-10.481, 11.080, 0.010, 0.009, 0.699, 201.189 
630, -1.659, 0.645, 0.793, 27.037,-10.481, 11.080, 0.010, 0.009, 0.699, 201.189 
641, -1.659, 0.645, 0.793, 27.037,-10.481, 11.080, 0.010, 0.009, 0.699, 201.189 
652, -1.659, 0.645, 0.793, 27.037,-10.481, 11.080, 0.010, 0.009, 0.699, 201.189 
663, -1.878, 0.723, 0.835, 29.482,-11.373, 12.204, 0.011, 0.010, 0.766, 201.095 
674, -1.878, 0.723, 0.835, 29.482,-11.373, 12.204, 0.011, 0.010, 0.766, 201.095 
685, -1.878, 0.723, 0.835, 29.482,-11.373, 12.204, 0.011, 0.010, 0.766, 201.095 
696, -1.878, 0.723, 0.835, 29.482,-11.373, 12.204, 0.011, 0.010, 0.766, 201.095 
707, -1.878, 0.723, 0.835, 29.482,-11.373, 12.204, 0.011, 0.010, 0.766, 201.095 
719, -1.878, 0.723, 0.835, 29.482,-11.373, 12.204, 0.011, 0.010, 0.766, 201.095 
730, -1.878, 0.723, 0.835, 29.482,-11.373, 12.204, 0.011, 0.010, 0.766, 201.095 
741, -1.878, 0.723, 0.835, 29.482,-11.373, 12.204, 0.011, 0.010, 0.766, 201.095 
752, -1.878, 0.723, 0.835, 29.482,-11.373, 12.204, 0.011, 0.010, 0.766, 201.095 
763, -1.878, 0.723, 0.835, 29.482,-11.373, 12.204, 0.011, 0.010, 0.766, 201.095 
774, -1.984, 0.789, 0.921, 31.613,-12.145, 12.928, 0.011, 0.010, 0.820, 201.016 
785, -1.984, 0.789, 0.921, 31.613,-12.145, 12.928, 0.011, 0.010, 0.820, 201.016 
796, -1.984, 0.789, 0.921, 31.613,-12.145, 12.928, 0.011, 0.010, 0.820, 201.016 
807, -1.984, 0.789, 0.921, 31.613,-12.145, 12.928, 0.011, 0.010, 0.820, 201.016 
818, -1.984, 0.789, 0.921, 31.613,-12.145, 12.928, 0.011, 0.010, 0.820, 201.016 
829, -1.984, 0.789, 0.921, 31.613,-12.145, 12.928, 0.011, 0.010, 0.820, 201.016 
840, -1.984, 0.789, 0.921, 31.613,-12.145, 12.928, 0.011, 0.010, 0.820, 201.016 
851, -1.984, 0.789, 0.921, 31.613,-12.145, 12.928, 0.011, 0.010, 0.820, 201.016 
862, -1.984, 0.789, 0.921, 31.613,-12.145, 12.928, 0.011, 0.010, 0.820, 201.016 
873, -1.984, 0.789, 0.921, 31.613,-12.145, 12.928, 0.011, 0.010, 0.820, 201.016 
884, -2.074, 0.863, 0.992, 33.318,-12.939, 13.741, 0.012, 0.010, 0.864, 201.224 
895, -2.074, 0.863, 0.992, 33.318,-12.939, 13.741, 0.012, 0.010, 0.864, 201.224 
906, -2.074, 0.863, 0.992, 33.318,-12.939, 13.741, 0.012, 0.010, 0.864, 201.224 
917, -2.074, 0.863, 0.992, 33.318,-12.939, 13.741, 0.012, 0.010, 0.864, 201.224 
928, -2.074, 0.863, 0.992, 33.318,-12.939, 13.741, 0.012, 0.010, 0.864, 201.224 
939, -2.074, 0.863, 0.992, 33.318,-12.939, 13.741, 0.012, 0.010, 0.864, 201.224 
950, -2.074, 0.863, 0.992, 33.318,-12.939, 13.741, 0.012, 0.010, 0.864, 201.224 
961, -2.074, 0.863, 0.992, 33.318,-12.939, 13.741, 0.012, 0.010, 0.864, 201.224 
972, -2.074, 0.863, 0.992, 33.318,-12.939, 13.741, 0.012, 0.010, 0.864, 201.224 
984, -2.074, 0.863, 0.992, 33.318,-12.939, 13.741, 0.012, 0.010, 0.864, 201.224 
996, -2.166, 0.903, 0.970, 34.682,-13.574, 14.391, 0.013, 0.010, 0.899, 201.375 
1007, -2.166, 0.903, 0.970, 34.682,-13.574, 14.391, 0.013, 0.010, 0.899, 201.375 
1018, -2.166, 0.903, 0.970, 34.682,-13.574, 14.391, 0.013, 0.010, 0.899, 201.375 
1029, -2.166, 0.903, 0.970, 34.682,-13.574, 14.391, 0.013, 0.010, 0.899, 201.375 
1041, -2.166, 0.903, 0.970, 34.682,-13.574, 14.391, 0.013, 0.010, 0.899, 201.375 
1052, -2.166, 0.903, 0.970, 34.682,-13.574, 14.391, 0.013, 0.010, 0.899, 201.375 
1063, -2.166, 0.903, 0.970, 34.682,-13.574, 14.391, 0.013, 0.010, 0.899, 201.375 
1074, -2.166, 0.903, 0.970, 34.682,-13.574, 14.391, 0.013, 0.010, 0.899, 201.375 
1085, -2.166, 0.903, 0.970, 34.682,-13.574, 14.391, 0.013, 0.010, 0.899, 201.375 
1096, -2.166, 0.903, 0.970, 35.714,-13.906, 14.794, 0.013, 0.010, 0.899, 201.275 
1107, -2.194, 0.948, 1.005, 35.714,-13.906, 14.794, 0.014, 0.011, 0.926, 201.275 
1118, -2.194, 0.948, 1.005, 35.714,-13.906, 14.794, 0.014, 0.011, 0.926, 201.275 
1129, -2.194, 0.948, 1.005, 35.714,-13.906, 14.794, 0.014, 0.011, 0.926, 201.275 
1140, -2.194, 0.948, 1.005, 35.714,-13.906, 14.794, 0.014, 0.011, 0.926, 201.275 
1151, -2.194, 0.948, 1.005, 35.714,-13.906, 14.794, 0.014, 0.011, 0.926, 201.275 
1162, -2.194, 0.948, 1.005, 35.714,-13.906, 14.794, 0.014, 0.011, 0.926, 201.275 
1173, -2.194, 0.948, 1.005, 35.714,-13.906, 14.794, 0.014, 0.011, 0.926, 201.275 
1185, -2.194, 0.948, 1.005, 35.714,-13.906, 14.794, 0.014, 0.011, 0.926, 201.275 
1196, -2.194, 0.948, 1.005, 35.714,-13.906, 14.794, 0.014, 0.011, 0.926, 201.275 
1207, -2.248, 0.884, 1.047, 36.453,-14.201, 15.087, 0.014, 0.011, 0.926, 201.285 
1218, -2.248, 0.884, 1.047, 36.453,-14.201, 15.087, 0.014, 0.011, 0.949, 201.285 
1229, -2.248, 0.884, 1.047, 36.453,-14.201, 15.087, 0.014, 0.011, 0.949, 201.285 
1240, -2.248, 0.884, 1.047, 36.453,-14.201, 15.087, 0.014, 0.011, 0.949, 201.285 
1251, -2.248, 0.884, 1.047, 36.453,-14.201, 15.087, 0.014, 0.011, 0.949, 201.285 
1262, -2.248, 0.884, 1.047, 36.453,-14.201, 15.087, 0.014, 0.011, 0.949, 201.285 
1273, -2.248, 0.884, 1.047, 36.453,-14.201, 15.087, 0.014, 0.011, 0.949, 201.285 
1284, -2.248, 0.884, 1.047, 36.453,-14.201, 15.087, 0.014, 0.011, 0.949, 201.285 
1295, -2.248, 0.884, 1.047, 36.453,-14.201, 15.087, 0.014, 0.011, 0.949, 201.285 
1306, -2.248, 0.884, 1.047, 36.453,-14.201, 15.087, 0.014, 0.011, 0.949, 201.285 
1318, -2.259, 0.898, 1.075, 37.131,-14.584, 15.234, 0.014, 0.010, 0.966, 201.443 
1329, -2.259, 0.898, 1.075, 37.131,-14.584, 15.234, 0.014, 0.010, 0.966, 201.443 
1340, -2.259, 0.898, 1.075, 37.131,-14.584, 15.234, 0.014, 0.010, 0.966, 201.443 
1351, -2.259, 0.898, 1.075, 37.131,-14.584, 15.234, 0.014, 0.010, 0.966, 201.443 
1362, -2.259, 0.898, 1.075, 37.131,-14.584, 15.234, 0.014, 0.010, 0.966, 201.443 
1373, -2.259, 0.898, 1.075, 37.131,-14.584, 15.234, 0.014, 0.010, 0.966, 201.443 
1384, -2.259, 0.898, 1.075, 37.131,-14.584, 15.234, 0.014, 0.010, 0.966, 201.443 
1396, -2.259, 0.898, 1.075, 37.131,-14.584, 15.234, 0.014, 0.010, 0.966, 201.443 
1407, -2.259, 0.898, 1.075, 37.131,-14.584, 15.234, 0.014, 0.010, 0.966, 201.443 
1418, -2.259, 0.898, 1.075, 37.131,-14.584, 15.234, 0.014, 0.010, 0.966, 201.443 
1430, -2.329, 0.907, 1.065, 37.762,-15.036, 15.322, 0.015, 0.012, 0.981, 201.712 
1441, -2.329, 0.907, 1.065, 37.762,-15.036, 15.322, 0.015, 0.012, 0.981, 201.712 
1452, -2.329, 0.907, 1.065, 37.762,-15.036, 15.322, 0.015, 0.012, 0.981, 201.712 
1463, -2.329, 0.907, 1.065, 37.762,-15.036, 15.322, 0.015, 0.012, 0.981, 201.712 
1474, -2.329, 0.907, 1.065, 37.762,-15.036, 15.322, 0.015, 0.012, 0.981, 201.712 
1485, -2.329, 0.907, 1.065, 37.762,-15.036, 15.322, 0.015, 0.012, 0.981, 201.712 
1496, -2.329, 0.907, 1.065, 37.762,-15.036, 15.322, 0.015, 0.012, 0.981, 201.712 
1507, -2.329, 0.907, 1.065, 37.762,-15.036, 15.322, 0.015, 0.012, 0.981, 201.712 
1518, -2.329, 0.907, 1.065, 37.762,-15.036, 15.322, 0.015, 0.012, 0.981, 201.712 
1530, -2.329, 0.907, 1.065, 37.762,-15.036, 15.322, 0.015, 0.012, 0.981, 201.712 
1542, -2.374, 0.956, 1.098, 38.120,-15.252, 15.480, 0.014, 0.012, 0.992, 201.806 
1553, -2.374, 0.956, 1.098, 38.120,-15.252, 15.480, 0.014, 0.012, 0.992, 201.806 
1564, -2.374, 0.956, 1.098, 38.120,-15.252, 15.480, 0.014, 0.012, 0.992, 201.806 
1575, -2.374, 0.956, 1.098, 38.120,-15.252, 15.480, 0.014, 0.012, 0.992, 201.806 
1586, -2.374, 0.956, 1.098, 38.120,-15.252, 15.480, 0.014, 0.012, 0.992, 201.806 
1597, -2.374, 0.956, 1.098, 38.120,-15.252, 15.480, 0.014, 0.012, 0.992, 201.806 
1608, -2.374, 0.956, 1.098, 38.120,-15.252, 15.480, 0.014, 0.012, 0.992, 201.806 
1619, -2.374, 0.956, 1.098, 38.120,-15.252, 15.480, 0.014, 0.012, 0.992, 201.806 
1630, -2.374, 0.956, 1.098, 38.120,-15.252, 15.480, 0.014, 0.012, 0.992, 201.806 
1641, -2.374, 0.956, 1.098, 38.120,-15.252, 15.480, 0.014, 0.012, 0.992, 201.806 
1652, -2.403, 0.979, 1.055, 38.523,-15.307, 15.783, 0.015, 0.012, 1.001, 201.670 
1663, -2.403, 0.979, 1.055, 38.523,-15.307, 15.783, 0.015, 0.012, 1.001, 201.670 
1674, -2.403, 0.979, 1.055, 38.523,-15.307, 15.783, 0.015, 0.012, 1.001, 201.670 
1685, -2.403, 0.979, 1.055, 38.523,-15.307, 15.783, 0.015, 0.012, 1.001, 201.670 
1696, -2.403, 0.979, 1.055, 38.523,-15.307, 15.783, 0.015, 0.012, 1.001, 201.670 
1707, -2.403, 0.979, 1.055, 38.523,-15.307, 15.783, 0.015, 0.012, 1.001, 201.670 
1718, -2.403, 0.979, 1.055, 38.523,-15.307, 15.783, 0.015, 0.012, 1.001, 201.670 
1730, -2.403, 0.979, 1.055, 38.523,-15.307, 15.783, 0.015, 0.012, 1.001, 201.670 
1741, -2.403, 0.979, 1.055, 38.523,-15.307, 15.783, 0.015, 0.012, 1.001, 201.670 
1752, -2.403, 0.979, 1.055, 38.523,-15.307, 15.783, 0.015, 0.012, 1.001, 201.670 
1763, -2.449, 0.948, 1.062, 38.729,-15.351, 15.732, 0.014, 0.012, 1.008, 201.622 
1774, -2.449, 0.948, 1.062, 38.729,-15.351, 15.732, 0.014, 0.012, 1.008, 201.622 
1785, -2.449, 0.948, 1.062, 38.729,-15.351, 15.732, 0.014, 0.012, 1.008, 201.622 
1796, -2.449, 0.948, 1.062, 38.729,-15.351, 15.732, 0.014, 0.012, 1.008, 201.622 
1807, -2.449, 0.948, 1.062, 38.729,-15.351, 15.732, 0.014, 0.012, 1.008, 201.622 
1818, -2.449, 0.948, 1.062, 38.729,-15.351, 15.732, 0.014, 0.012, 1.008, 201.622 
1829, -2.449, 0.948, 1.062, 38.729,-15.351, 15.732, 0.014, 0.012, 1.008, 201.622 
1840, -2.449, 0.948, 1.062, 38.729,-15.351, 15.732, 0.014, 0.012, 1.008, 201.622 
1851, -2.449, 0.948, 1.062, 38.729,-15.351, 15.732, 0.014, 0.012, 1.008, 201.622 
1862, -2.449, 0.948, 1.062, 38.729,-15.351, 15.732, 0.014, 0.012, 1.008, 201.622 
1874, -2.435, 0.915, 1.002, 39.128,-15.035, 15.808, 0.014, 0.012, 1.008, 201.019 
1885, -2.435, 0.915, 1.002, 39.128,-15.035, 15.808, 0.014, 0.012, 1.013, 201.019 
1896, -2.435, 0.915, 1.002, 39.128,-15.035, 15.808, 0.014, 0.012, 1.013, 201.019 
1907, -2.435, 0.915, 1.002, 39.128,-15.035, 15.808, 0.014, 0.012, 1.013, 201.019 
1918, -2.435, 0.915, 1.002, 39.128,-15.035, 15.808, 0.014, 0.012, 1.013, 201.019 
1929, -2.435, 0.915, 1.002, 39.128,-15.035, 15.808, 0.014, 0.012, 1.013, 201.019 
1940, -2.435, 0.915, 1.002, 39.128,-15.035, 15.808, 0.014, 0.012, 1.013, 201.019 
1951, -2.435, 0.915, 1.002, 39.128,-15.035, 15.808, 0.014, 0.012, 1.013, 201.019 
1962, -2.435, 0.915, 1.002, 39.128,-15.035, 15.808, 0.014, 0.012, 1.013, 201.019 
1973, -2.435, 0.915, 1.002, 39.128,-15.035, 15.808, 0.014, 0.012, 1.013, 201.019 
1984, -2.438, 0.908, 0.988, 39.447,-14.782, 15.869, 0.014, 0.012, 1.013, 200.542 
1995, -2.438, 0.908, 0.988, 39.447,-14.782, 15.869, 0.015, 0.012, 1.019, 200.542 
2006, -2.438, 0.908, 0.988, 39.447,-14.782, 15.869, 0.015, 0.012, 1.019, 200.542 
2017, -2.438, 0.908, 0.988, 39.447,-14.782, 15.869, 0.015, 0.012, 1.019, 200.542 
2029, -2.438, 0.908, 0.988, 39.447,-14.782, 15.869, 0.015, 0.012, 1.019, 200.542 
2040, -2.438, 0.908, 0.988, 39.447,-14.782, 15.869, 0.015, 0.012, 1.019, 200.542 
2051, -2.438, 0.908, 0.988, 39.447,-14.782, 15.869, 0.015, 0.012, 1.019, 200.542 
2062, -2.438, 0.908, 0.988, 39.447,-14.782, 15.869, 0.015, 0.012, 1.019, 200.542 
2073, -2.438, 0.908, 0.988, 39.447,-14.782, 15.869, 0.015, 0.012, 1.019, 200.542 
2084, -2.438, 0.908, 0.988, 39.447,-14.782, 15.869, 0.015, 0.012, 1.019, 200.542 
2096, -2.443, 0.900, 1.010, 39.585,-14.931, 15.977, 0.015, 0.013, 1.022, 200.666 
2107, -2.443, 0.900, 1.010, 39.585,-14.931, 15.977, 0.015, 0.013, 1.022, 200.666 
2118, -2.443, 0.900, 1.010, 39.585,-14.931, 15.977, 0.015, 0.013, 1.022, 200.666 
2129, -2.443, 0.900, 1.010, 39.585,-14.931, 15.977, 0.015, 0.013, 1.022, 200.666 
2140, -2.443, 0.900, 1.010, 39.585,-14.931, 15.977, 0.015, 0.013, 1.022, 200.666 
2151, -2.443, 0.900, 1.010, 39.585,-14.931, 15.977, 0.015, 0.013, 1.022, 200.666 
2162, -2.443, 0.900, 1.010, 39.585,-14.931, 15.977, 0.015, 0.013, 1.022, 200.666 
2173, -2.443, 0.900, 1.010, 39.585,-14.931, 15.977, 0.015, 0.013, 1.022, 200.666 
2185, -2.443, 0.900, 1.010, 39.585,-14.931, 15.977, 0.015, 0.013, 1.022, 200.666 
2196, -2.443, 0.900, 1.010, 39.585,-14.931, 15.977, 0.015, 0.013, 1.022, 200.666 
2207, -2.452, 0.882, 0.994, 39.872,-15.109, 15.887, 0.015, 0.013, 1.025, 200.754 
2218, -2.452, 0.882, 0.994, 39.872,-15.109, 15.887, 0.015, 0.013, 1.025, 200.754 
2229, -2.452, 0.882, 0.994, 39.872,-15.109, 15.887, 0.015, 0.013, 1.025, 200.754 
2241, -2.452, 0.882, 0.994, 39.872,-15.109, 15.887, 0.015, 0.013, 1.025, 200.754 
2252, -2.452, 0.882, 0.994, 39.872,-15.109, 15.887, 0.015, 0.013, 1.025, 200.754 
2263, -2.452, 0.882, 0.994, 39.872,-15.109, 15.887, 0.015, 0.013, 1.025, 200.754 
2274, -2.452, 0.882, 0.994, 39.872,-15.109, 15.887, 0.015, 0.013, 1.025, 200.754 
2285, -2.452, 0.882, 0.994, 39.872,-15.109, 15.887, 0.015, 0.013, 1.025, 200.754 
2296, -2.452, 0.882, 0.994, 39.872,-15.109, 15.887, 0.015, 0.013, 1.025, 200.754 
2308, -2.452, 0.882, 0.994, 39.872,-15.109, 15.887, 0.015, 0.013, 1.025, 200.754 
2321, -2.438, 0.870, 1.043, 39.866,-15.193, 15.815, 0.015, 0.013, 1.028, 200.861 
2332, -2.438, 0.870, 1.043, 39.866,-15.193, 15.815, 0.015, 0.013, 1.028, 200.861 
2343, -2.438, 0.870, 1.043, 39.866,-15.193, 15.815, 0.015, 0.013, 1.028, 200.861 
2354, -2.438, 0.870, 1.043, 39.866,-15.193, 15.815, 0.015, 0.013, 1.028, 200.861 
2364, -2.438, 0.870, 1.043, 39.866,-15.193, 15.815, 0.015, 0.013, 1.028, 200.861 
2376, -2.438, 0.870, 1.043, 39.866,-15.193, 15.815, 0.015, 0.013, 1.028, 200.861 
2387, -2.438, 0.870, 1.043, 39.866,-15.193, 15.815, 0.015, 0.013, 1.028, 200.861 
2398, -2.438, 0.870, 1.043, 39.866,-15.193, 15.815, 0.015, 0.013, 1.028, 200.861 
2409, -2.438, 0.870, 1.043, 39.866,-15.193, 15.815, 0.015, 0.013, 1.028, 200.861 
2421, -2.438, 0.870, 1.043, 39.866,-15.193, 15.815, 0.015, 0.013, 1.028, 200.861 
2433, -2.464, 0.905, 1.090, 39.891,-15.113, 15.846, 0.016, 0.013, 1.029, 200.750 
2444, -2.464, 0.905, 1.090, 39.891,-15.113, 15.846, 0.016, 0.013, 1.029, 200.750 
2455, -2.464, 0.905, 1.090, 39.891,-15.113, 15.846, 0.016, 0.013, 1.029, 200.750 
2466, -2.464, 0.905, 1.090, 39.891,-15.113, 15.846, 0.016, 0.013, 1.029, 200.750 
2477, -2.464, 0.905, 1.090, 39.891,-15.113, 15.846, 0.016, 0.013, 1.029, 200.750 
2488, -2.464, 0.905, 1.090, 39.891,-15.113, 15.846, 0.016, 0.013, 1.029, 200.750 
2499, -2.464, 0.905, 1.090, 39.891,-15.113, 15.846, 0.016, 0.013, 1.029, 200.750 
2511, -2.464, 0.905, 1.090, 39.891,-15.113, 15.846, 0.016, 0.013, 1.029, 200.750 
2523, -2.464, 0.905, 1.090, 39.891,-15.113, 15.846, 0.016, 0.013, 1.029, 200.750 
2534, -2.464, 0.905, 1.090, 40.029,-15.226, 15.811, 0.016, 0.013, 1.029, 200.825 
2546, -2.455, 0.907, 1.170, 40.029,-15.226, 15.811, 0.016, 0.013, 1.031, 200.825 
2557, -2.455, 0.907, 1.170, 40.029,-15.226, 15.811, 0.016, 0.013, 1.031, 200.825 
2568, -2.455, 0.907, 1.170, 40.029,-15.226, 15.811, 0.016, 0.013, 1.031, 200.825 
2579, -2.455, 0.907, 1.170, 40.029,-15.226, 15.811, 0.016, 0.013, 1.031, 200.825 
2590, -2.455, 0.907, 1.170, 40.029,-15.226, 15.811, 0.016, 0.013, 1.031, 200.825 
2601, -2.455, 0.907, 1.170, 40.029,-15.226, 15.811, 0.016, 0.013, 1.031, 200.825 
2612, -2.455, 0.907, 1.170, 40.029,-15.226, 15.811, 0.016, 0.013, 1.031, 200.825 
2623, -2.455, 0.907, 1.170, 40.029,-15.226, 15.811, 0.016, 0.013, 1.031, 200.825 
2635, -2.455, 0.907, 1.170, 40.029,-15.226, 15.811, 0.016, 0.013, 1.031, 200.825 
2646, -2.477, 0.926, 1.165, 40.050,-15.520, 15.872, 0.016, 0.013, 1.031, 201.182 
2657, -2.477, 0.926, 1.165, 40.050,-15.520, 15.872, 0.016, 0.012, 1.031, 201.182 
2668, -2.477, 0.926, 1.165, 40.050,-15.520, 15.872, 0.016, 0.012, 1.031, 201.182 
2679, -2.477, 0.926, 1.165, 40.050,-15.520, 15.872, 0.016, 0.012, 1.031, 201.182 
2690, -2.477, 0.926, 1.165, 40.050,-15.520, 15.872, 0.016, 0.012, 1.031, 201.182 
2701, -2.477, 0.926, 1.165, 40.050,-15.520, 15.872, 0.016, 0.012, 1.031, 201.182 
2712, -2.477, 0.926, 1.165, 40.050,-15.520, 15.872, 0.016, 0.012, 1.031, 201.182 
2723, -2.477, 0.926, 1.165, 40.050,-15.520, 15.872, 0.016, 0.012, 1.031, 201.182 
2734, -2.477, 0.926, 1.165, 40.050,-15.520, 15.872, 0.016, 0.012, 1.031, 201.182 
2747, -2.477, 0.926, 1.165, 40.050,-15.520, 15.872, 0.016, 0.012, 1.031, 201.182 
2758, -2.520, 0.912, 1.112, 40.009,-15.463, 15.744, 0.016, 0.012, 1.031, 201.131 
2769, -2.520, 0.912, 1.112, 40.009,-15.463, 15.744, 0.016, 0.012, 1.031, 201.131 
2780, -2.520, 0.912, 1.112, 40.009,-15.463, 15.744, 0.016, 0.012, 1.031, 201.131 
2791, -2.520, 0.912, 1.112, 40.009,-15.463, 15.744, 0.016, 0.012, 1.031, 201.131 
2802, -2.520, 0.912, 1.112, 40.009,-15.463, 15.744, 0.016, 0.012, 1.031, 201.131 
2813, -2.520, 0.912, 1.112, 40.009,-15.463, 15.744, 0.016, 0.012, 1.031, 201.131 
2824, -2.520, 0.912, 1.112, 40.009,-15.463, 15.744, 0.016, 0.012, 1.031, 201.131 
2835, -2.520, 0.912, 1.112, 40.009,-15.463, 15.744, 0.016, 0.012, 1.031, 201.131 
2847, -2.520, 0.912, 1.112, 40.009,-15.463, 15.744, 0.016, 0.012, 1.031, 201.131 
2860, -2.520, 0.912, 1.112, 40.009,-15.463, 15.744, 0.016, 0.012, 1.031, 201.131 
2871, -2.475, 0.914, 1.172, 39.976,-15.418, 15.643, 0.016, 0.013, 1.033, 201.090 
2882, -2.475, 0.914, 1.172, 39.976,-15.418, 15.643, 0.016, 0.013, 1.033, 201.090 
2893, -2.475, 0.914, 1.172, 39.976,-15.418, 15.643, 0.016, 0.013, 1.033, 201.090 
2904, -2.475, 0.914, 1.172, 39.976,-15.418, 15.643, 0.016, 0.013, 1.033, 201.090 
2915, -2.475, 0.914, 1.172, 39.976,-15.418, 15.643, 0.016, 0.013, 1.033, 201.090 
2926, -2.475, 0.914, 1.172, 39.976,-15.418, 15.643, 0.016, 0.013, 1.033, 201.090 
2937, -2.475, 0.914, 1.172, 39.976,-15.418, 15.643, 0.016, 0.013, 1.033, 201.090 
2947, -2.475, 0.914, 1.172, 39.976,-15.418, 15.643, 0.016, 0.013, 1.033, 201.090 
2958, -2.475, 0.914, 1.172, 39.976,-15.418, 15.643, 0.016, 0.013, 1.033, 201.090 
2970, -2.475, 0.914, 1.172, 39.976,-15.418, 15.643, 0.016, 0.013, 1.033, 201.090 
2981, -2.435, 0.937, 1.176, 39.950,-15.381, 15.561, 0.016, 0.013, 1.034, 201.057 
2992, -2.435, 0.937, 1.176, 39.950,-15.381, 15.561, 0.016, 0.013, 1.034, 201.057 
3002, -2.435, 0.937, 1.176, 39.950,-15.381, 15.561, 0.016, 0.013, 1.034, 201.057 
3013, -2.435, 0.937, 1.176, 39.950,-15.381, 15.561, 0.016, 0.013, 1.034, 201.057 
3024, -2.435, 0.937, 1.176, 39.950,-15.381, 15.561, 0.016, 0.013, 1.034, 201.057 
3036, -2.435, 0.937, 1.176, 39.950,-15.381, 15.561, 0.016, 0.013, 1.034, 201.057 
3047, -2.435, 0.937, 1.176, 39.950,-15.381, 15.561, 0.016, 0.013, 1.034, 201.057 
3058, -2.435, 0.937, 1.176, 39.950,-15.381, 15.561, 0.016, 0.013, 1.034, 201.057 
3069, -2.435, 0.937, 1.176, 39.950,-15.381, 15.561, 0.016, 0.013, 1.034, 201.057 
3082, -2.435, 0.937, 1.176, 39.950,-15.381, 15.561, 0.016, 0.013, 1.034, 201.057 
3094, -2.441, 0.922, 1.134, 39.929,-15.352, 15.496, 0.017, 0.013, 1.034, 201.031 
3106, -2.441, 0.922, 1.134, 39.929,-15.352, 15.496, 0.017, 0.013, 1.034, 201.031 
3117, -2.441, 0.922, 1.134, 39.929,-15.352, 15.496, 0.017, 0.013, 1.034, 201.031 
3128, -2.441, 0.922, 1.134, 39.929,-15.352, 15.496, 0.017, 0.013, 1.034, 201.031 
3139, -2.441, 0.922, 1.134, 39.929,-15.352, 15.496, 0.017, 0.013, 1.034, 201.031 
3150, -2.441, 0.922, 1.134, 39.929,-15.352, 15.496, 0.017, 0.013, 1.034, 201.031 
3161, -2.441, 0.922, 1.134, 39.929,-15.352, 15.496, 0.017, 0.013, 1.034, 201.031 
3172, -2.441, 0.922, 1.134, 39.929,-15.352, 15.496, 0.017, 0.013, 1.034, 201.031 
3184, -2.441, 0.922, 1.134, 39.929,-15.352, 15.496, 0.017, 0.013, 1.034, 201.031 
3195, -2.441, 0.922, 1.134, 39.971,-15.270, 15.678, 0.017, 0.013, 1.034, 200.908 
3207, -2.411, 0.936, 1.184, 39.971,-15.270, 15.678, 0.016, 0.013, 1.036, 200.908 
3218, -2.411, 0.936, 1.184, 39.971,-15.270, 15.678, 0.016, 0.013, 1.036, 200.908 
3229, -2.411, 0.936, 1.184, 39.971,-15.270, 15.678, 0.016, 0.013, 1.036, 200.908 
3240, -2.411, 0.936, 1.184, 39.971,-15.270, 15.678, 0.016, 0.013, 1.036, 200.908 
3251, -2.411, 0.936, 1.184, 39.971,-15.270, 15.678, 0.016, 0.013, 1.036, 200.908 
3263, -2.411, 0.936, 1.184, 39.971,-15.270, 15.678, 0.016, 0.013, 1.036, 200.908 
3274, -2.411, 0.936, 1.184, 39.971,-15.270, 15.678, 0.016, 0.013, 1.036, 200.908 
3285, -2.411, 0.936, 1.184, 39.971,-15.270, 15.678, 0.016, 0.013, 1.036, 200.908 
3296, -2.411, 0.936, 1.184, 39.971,-15.270, 15.678, 0.016, 0.013, 1.036, 200.908 
3307, -2.395, 0.946, 1.179, 40.180,-15.321, 15.765, 0.016, 0.013, 1.036, 200.873 
3318, -2.395, 0.946, 1.179, 40.180,-15.321, 15.765, 0.017, 0.013, 1.034, 200.873 
3329, -2.395, 0.946, 1.179, 40.180,-15.321, 15.765, 0.017, 0.013, 1.034, 200.873 
3340, -2.395, 0.946, 1.179, 40.180,-15.321, 15.765, 0.017, 0.013, 1.034, 200.873 
3352, -2.395, 0.946, 1.179, 40.180,-15.321, 15.765, 0.017, 0.013, 1.034, 200.873 
3363, -2.395, 0.946, 1.179, 40.180,-15.321, 15.765, 0.017, 0.013, 1.034, 200.873 
3374, -2.395, 0.946, 1.179, 40.180,-15.321, 15.765, 0.017, 0.013, 1.034, 200.873 
3385, -2.395, 0.946, 1.179, 40.180,-15.321, 15.765, 0.017, 0.013, 1.034, 200.873 
3396, -2.395, 0.946, 1.179, 40.180,-15.321, 15.765, 0.017, 0.013, 1.034, 200.873 
3408, -2.395, 0.946, 1.179, 40.180,-15.321, 15.765, 0.017, 0.013, 1.034, 200.873 
3419, -2.418, 0.981, 1.097, 40.172,-15.245, 15.952, 0.017, 0.011, 1.035, 200.782 
3430, -2.418, 0.981, 1.097, 40.172,-15.245, 15.952, 0.017, 0.011, 1.035, 200.782 
3441, -2.418, 0.981, 1.097, 40.172,-15.245, 15.952, 0.017, 0.011, 1.035, 200.782 
3452, -2.418, 0.981, 1.097, 40.172,-15.245, 15.952, 0.017, 0.011, 1.035, 200.782 
3463, -2.418, 0.981, 1.097, 40.172,-15.245, 15.952, 0.017, 0.011, 1.035, 200.782 
3474, -2.418, 0.981, 1.097, 40.172,-15.245, 15.952, 0.017, 0.011, 1.035, 200.782 
3485, -2.418, 0.981, 1.097, 40.172,-15.245, 15.952, 0.017, 0.011, 1.035, 200.782 
3497, -2.418, 0.981, 1.097, 40.172,-15.245, 15.952, 0.017, 0.011, 1.035, 200.782 
3508, -2.418, 0.981, 1.097, 40.172,-15.245, 15.952, 0.017, 0.011, 1.035, 200.782 
3520, -2.418, 0.981, 1.097, 40.172,-15.245, 15.952, 0.017, 0.011, 1.035, 200.782 
3531, -2.432, 0.992, 1.081, 40.194,-15.507, 16.014, 0.017, 0.012, 1.034, 201.097 
3542, -2.432, 0.992, 1.081, 40.194,-15.507, 16.014, 0.017, 0.012, 1.034, 201.097 
3553, -2.432, 0.992, 1.081, 40.194,-15.507, 16.014, 0.017, 0.012, 1.034, 201.097 
3564, -2.432, 0.992, 1.081, 40.194,-15.507, 16.014, 0.017, 0.012, 1.034, 201.097 
3575, -2.432, 0.992, 1.081, 40.194,-15.507, 16.014, 0.017, 0.012, 1.034, 201.097 
3586, -2.432, 0.992, 1.081, 40.194,-15.507, 16.014, 0.017, 0.012, 1.034, 201.097 
3597, -2.432, 0.992, 1.081, 40.194,-15.507, 16.014, 0.017, 0.012, 1.034, 201.097 
3608, -2.432, 0.992, 1.081, 40.194,-15.507, 16.014, 0.017, 0.012, 1.034, 201.097 
3619, -2.432, 0.992, 1.081, 40.194,-15.507, 16.014, 0.017, 0.012, 1.034, 201.097 
3631, -2.432, 0.992, 1.081, 40.194,-15.507, 16.014, 0.017, 0.012, 1.034, 201.097 
3642, -2.439, 0.991, 1.136, 40.212,-15.658, 16.122, 0.017, 0.012, 1.034, 201.275 
3653, -2.439, 0.991, 1.136, 40.212,-15.658, 16.122, 0.017, 0.012, 1.037, 201.275 
3664, -2.439, 0.991, 1.136, 40.212,-15.658, 16.122, 0.017, 0.012, 1.037, 201.275 
3675, -2.439, 0.991, 1.136, 40.212,-15.658, 16.122, 0.017, 0.012, 1.037, 201.275 
3686, -2.439, 0.991, 1.136, 40.212,-15.658, 16.122, 0.017, 0.012, 1.037, 201.275 
3697, -2.439, 0.991, 1.136, 40.212,-15.658, 16.122, 0.017, 0.012, 1.037, 201.275 
3708, -2.439, 0.991, 1.136, 40.212,-15.658, 16.122, 0.017, 0.012, 1.037, 201.275 
3719, -2.439, 0.991, 1.136, 40.212,-15.658, 16.122, 0.017, 0.012, 1.037, 201.275 
3730, -2.439, 0.991, 1.136, 40.212,-15.658, 16.122, 0.017, 0.012, 1.037, 201.275 
3741, -2.439, 0.991, 1.136, 40.212,-15.658, 16.122, 0.017, 0.012, 1.037, 201.275 
3753, -2.461, 1.055, 1.112, 40.139,-15.749, 16.061, 0.017, 0.012, 1.037, 201.423 
3764, -2.461, 1.055, 1.112, 40.139,-15.749, 16.061, 0.016, 0.013, 1.036, 201.423 
3775, -2.461, 1.055, 1.112, 40.139,-15.749, 16.061, 0.016, 0.013, 1.036, 201.423 
3786, -2.461, 1.055, 1.112, 40.139,-15.749, 16.061, 0.016, 0.013, 1.036, 201.423 
3797, -2.461, 1.055, 1.112, 40.139,-15.749, 16.061, 0.016, 0.013, 1.036, 201.423 
3808, -2.461, 1.055, 1.112, 40.139,-15.749, 16.061, 0.016, 0.013, 1.036, 201.423 
3819, -2.461, 1.055, 1.112, 40.139,-15.749, 16.061, 0.016, 0.013, 1.036, 201.423 
3830, -2.461, 1.055, 1.112, 40.139,-15.749, 16.061, 0.016, 0.013, 1.036, 201.423 
3841, -2.461, 1.055, 1.112, 40.139,-15.749, 16.061, 0.016, 0.013, 1.036, 201.423 
3852, -2.461, 1.055, 1.112, 40.139,-15.749, 16.061, 0.016, 0.013, 1.036, 201.423 
3864, -2.461, 1.055, 1.112, 40.168,-15.793, 15.867, 0.016, 0.013, 1.036, 201.463 
3875, -2.461, 1.004, 1.117, 40.168,-15.793, 15.867, 0.015, 0.013, 1.038, 201.463 
3886, -2.461, 1.004, 1.117, 40.168,-15.793, 15.867, 0.015, 0.013, 1.038, 201.463 
3896, -2.461, 1.004, 1.117, 40.168,-15.793, 15.867, 0.015, 0.013, 1.038, 201.463 
3907, -2.461, 1.004, 1.117, 40.168,-15.793, 15.867, 0.015, 0.013, 1.038, 201.463 
3919, -2.461, 1.004, 1.117, 40.168,-15.793, 15.867, 0.015, 0.013, 1.038, 201.463 
3938, -2.461, 1.004, 1.117, 40.168,-15.793, 15.867, 0.015, 0.013, 1.038, 201.463 
3949, -2.461, 1.004, 1.117, 40.168,-15.793, 15.867, 0.015, 0.013, 1.038, 201.463 
3960, -2.461, 1.004, 1.117, 40.168,-15.793, 15.867, 0.015, 0.013, 1.038, 201.463 
3971, -2.461, 1.004, 1.117, 40.168,-15.793, 15.867, 0.015, 0.013, 1.038, 201.463 
3983, -2.491, 0.983, 1.066, 40.133,-15.710, 15.828, 0.015, 0.012, 1.038, 201.378 
3994, -2.491, 0.983, 1.066, 40.133,-15.710, 15.828, 0.015, 0.012, 1.038, 201.378 
4005, -2.491, 0.983, 1.066, 40.133,-15.710, 15.828, 0.015, 0.012, 1.038, 201.378 
4016, -2.491, 0.983, 1.066, 40.133,-15.710, 15.828, 0.015, 0.012, 1.038, 201.378 
4027, -2.491, 0.983, 1.066, 40.133,-15.710, 15.828, 0.015, 0.012, 1.038, 201.378 
4039, -2.491, 0.983, 1.066, 40.133,-15.710, 15.828, 0.015, 0.012, 1.038, 201.378 
4050, -2.491, 0.983, 1.066, 40.133,-15.710, 15.828, 0.015, 0.012, 1.038, 201.378 
4061, -2.491, 0.983, 1.066, 40.133,-15.710, 15.828, 0.015, 0.012, 1.038, 201.378 
4072, -2.491, 0.983, 1.066, 40.133,-15.710, 15.828, 0.015, 0.012, 1.038, 201.378 
4083, -2.491, 0.983, 1.066, 40.104,-15.645, 15.798, 0.015, 0.012, 1.038, 201.311 
4095, -2.466, 0.981, 1.127, 40.104,-15.645, 15.798, 0.016, 0.013, 1.039, 201.311 
4106, -2.466, 0.981, 1.127, 40.104,-15.645, 15.798, 0.016, 0.013, 1.039, 201.311 
4117, -2.466, 0.981, 1.127, 40.104,-15.645, 15.798, 0.016, 0.013, 1.039, 201.311 
4129, -2.466, 0.981, 1.127, 40.104,-15.645, 15.798, 0.016, 0.013, 1.039, 201.311 
4140, -2.466, 0.981, 1.127, 40.104,-15.645, 15.798, 0.016, 0.013, 1.039, 201.311 
4151, -2.466, 0.981, 1.127, 40.104,-15.645, 15.798, 0.016, 0.013, 1.039, 201.311 
4162, -2.466, 0.981, 1.127, 40.104,-15.645, 15.798, 0.016, 0.013, 1.039, 201.311 
4173, -2.466, 0.981, 1.127, 40.104,-15.645, 15.798, 0.016, 0.013, 1.039, 201.311 
4184, -2.466, 0.981, 1.127, 40.104,-15.645, 15.798, 0.016, 0.013, 1.039, 201.311 
4196, -2.466, 0.981, 1.127, 40.082,-15.650, 15.890, 0.016, 0.013, 1.039, 201.329 
4207, -2.476, 1.009, 1.167, 40.082,-15.650, 15.890, 0.016, 0.012, 1.039, 201.329 
4217, -2.476, 1.009, 1.167, 40.082,-15.650, 15.890, 0.016, 0.012, 1.039, 201.329 
4229, -2.476, 1.009, 1.167, 40.082,-15.650, 15.890, 0.016, 0.012, 1.039, 201.329 
4240, -2.476, 1.009, 1.167, 40.082,-15.650, 15.890, 0.016, 0.012, 1.039, 201.329 
4251, -2.476, 1.009, 1.167, 40.082,-15.650, 15.890, 0.016, 0.012, 1.039, 201.329 
4262, -2.476, 1.009, 1.167, 40.082,-15.650, 15.890, 0.016, 0.012, 1.039, 201.329 
4273, -2.476, 1.009, 1.167, 40.082,-15.650, 15.890, 0.016, 0.012, 1.039, 201.329 
4284, -2.476, 1.009, 1.167, 40.082,-15.650, 15.890, 0.016, 0.012, 1.039, 201.329 
4296, -2.476, 1.009, 1.167, 40.082,-15.650, 15.890, 0.016, 0.012, 1.039, 201.329 
4307, -2.476, 1.009, 1.167, 39.976,-15.392, 15.876, 0.016, 0.012, 1.039, 201.058 
4318, -2.517, 0.958, 1.195, 39.976,-15.392, 15.876, 0.016, 0.013, 1.039, 201.058 
4329, -2.517, 0.958, 1.195, 39.976,-15.392, 15.876, 0.016, 0.013, 1.039, 201.058 
4340, -2.517, 0.958, 1.195, 39.976,-15.392, 15.876, 0.016, 0.013, 1.039, 201.058 
4351, -2.517, 0.958, 1.195, 39.976,-15.392, 15.876, 0.016, 0.013, 1.039, 201.058 
4362, -2.517, 0.958, 1.195, 39.976,-15.392, 15.876, 0.016, 0.013, 1.039, 201.058 
4374, -2.517, 0.958, 1.195, 39.976,-15.392, 15.876, 0.016, 0.013, 1.039, 201.058 
4385, -2.517, 0.958, 1.195, 39.976,-15.392, 15.876, 0.016, 0.013, 1.039, 201.058 
4396, -2.517, 0.958, 1.195, 39.976,-15.392, 15.876, 0.016, 0.013, 1.039, 201.058 
4408, -2.517, 0.958, 1.195, 39.976,-15.392, 15.876, 0.016, 0.013, 1.039, 201.058 
4421, -2.468, 0.925, 1.186, 39.862,-15.390, 16.070, 0.015, 0.013, 1.039, 201.110 
4432, -2.468, 0.925, 1.186, 39.862,-15.390, 16.070, 0.015, 0.013, 1.039, 201.110 
4443, -2.468, 0.925, 1.186, 39.862,-15.390, 16.070, 0.015, 0.013, 1.039, 201.110 
4454, -2.468, 0.925, 1.186, 39.862,-15.390, 16.070, 0.015, 0.013, 1.039, 201.110 
4466, -2.468, 0.925, 1.186, 39.862,-15.390, 16.070, 0.015, 0.013, 1.039, 201.110 
4477, -2.468, 0.925, 1.186, 39.862,-15.390, 16.070, 0.015, 0.013, 1.039, 201.110 
4488, -2.468, 0.925, 1.186, 39.862,-15.390, 16.070, 0.015, 0.013, 1.039, 201.110 
4499, -2.468, 0.925, 1.186, 39.862,-15.390, 16.070, 0.015, 0.013, 1.039, 201.110 
4510, -2.468, 0.925, 1.186, 39.862,-15.390, 16.070, 0.015, 0.013, 1.039, 201.110 
4521, -2.468, 0.925, 1.186, 39.862,-15.390, 16.070, 0.015, 0.013, 1.039, 201.110 
4533, -2.435, 0.897, 1.166, 39.976,-15.359, 16.138, 0.015, 0.013, 1.039, 201.017 
4544, -2.435, 0.897, 1.166, 39.976,-15.359, 16.138, 0.015, 0.013, 1.039, 201.017 
4555, -2.435, 0.897, 1.166, 39.976,-15.359, 16.138, 0.015, 0.013, 1.039, 201.017 
4566, -2.435, 0.897, 1.166, 39.976,-15.359, 16.138, 0.015, 0.013, 1.039, 201.017 
4577, -2.435, 0.897, 1.166, 39.976,-15.359, 16.138, 0.015, 0.013, 1.039, 201.017 
4588, -2.435, 0.897, 1.166, 39.976,-15.359, 16.138, 0.015, 0.013, 1.039, 201.017 
4599, -2.435, 0.897, 1.166, 39.976,-15.359, 16.138, 0.015, 0.013, 1.039, 201.017 
4610, -2.435, 0.897, 1.166, 39.976,-15.359, 16.138, 0.015, 0.013, 1.039, 201.017 
4621, -2.435, 0.897, 1.166, 39.976,-15.359, 16.138, 0.015, 0.013, 1.039, 201.017 
4633, -2.435, 0.897, 1.166, 39.976,-15.359, 16.138, 0.015, 0.013, 1.039, 201.017 
4645, -2.453, 0.878, 1.131, 40.008,-15.392, 16.191, 0.015, 0.012, 1.038, 201.043 
4656, -2.453, 0.878, 1.131, 40.008,-15.392, 16.191, 0.015, 0.012, 1.038, 201.043 
4667, -2.453, 0.878, 1.131, 40.008,-15.392, 16.191, 0.015, 0.012, 1.038, 201.043 
4678, -2.453, 0.878, 1.131, 40.008,-15.392, 16.191, 0.015, 0.012, 1.038, 201.043 
4689, -2.453, 0.878, 1.131, 40.008,-15.392, 16.191, 0.015, 0.012, 1.038, 201.043 
4700, -2.453, 0.878, 1.131, 40.008,-15.392, 16.191, 0.015, 0.012, 1.038, 201.043 
4712, -2.453, 0.878, 1.131, 40.008,-15.392, 16.191, 0.015, 0.012, 1.038, 201.043 
4723, -2.453, 0.878, 1.131, 40.008,-15.392, 16.191, 0.015, 0.012, 1.038, 201.043 
4734, -2.453, 0.878, 1.131, 40.008,-15.392, 16.191, 0.015, 0.012, 1.038, 201.043 
4745, -2.453, 0.878, 1.131, 40.008,-15.392, 16.191, 0.015, 0.012, 1.038, 201.043 
4757, -2.451, 0.901, 1.140, 40.063,-15.449, 15.912, 0.014, 0.012, 1.038, 201.087 
4768, -2.451, 0.901, 1.140, 40.063,-15.449, 15.912, 0.014, 0.012, 1.038, 201.087 
4779, -2.451, 0.901, 1.140, 40.063,-15.449, 15.912, 0.014, 0.012, 1.038, 201.087 
4790, -2.451, 0.901, 1.140, 40.063,-15.449, 15.912, 0.014, 0.012, 1.038, 201.087 
4801, -2.451, 0.901, 1.140, 40.063,-15.449, 15.912, 0.014, 0.012, 1.038, 201.087 
4812, -2.451, 0.901, 1.140, 40.063,-15.449, 15.912, 0.014, 0.012, 1.038, 201.087 
4823, -2.451, 0.901, 1.140, 40.063,-15.449, 15.912, 0.014, 0.012, 1.038, 201.087 
4834, -2.451, 0.901, 1.140, 40.063,-15.449, 15.912, 0.014, 0.012, 1.038, 201.087 
4845, -2.451, 0.901, 1.140, 40.063,-15.449, 15.912, 0.014, 0.012, 1.038, 201.087 
4857, -2.451, 0.901, 1.140, 40.063,-15.449, 15.912, 0.014, 0.012, 1.038, 201.087 
4871, -2.455, 0.905, 1.159, 40.195,-15.699, 15.952, 0.014, 0.013, 1.037, 201.334 
4882, -2.455, 0.905, 1.159, 40.195,-15.699, 15.952, 0.014, 0.013, 1.037, 201.334 
4893, -2.455, 0.905, 1.159, 40.195,-15.699, 15.952, 0.014, 0.013, 1.037, 201.334 
4904, -2.455, 0.905, 1.159, 40.195,-15.699, 15.952, 0.014, 0.013, 1.037, 201.334 
4915, -2.455, 0.905, 1.159, 40.195,-15.699, 15.952, 0.014, 0.013, 1.037, 201.334 
4926, -2.455, 0.905, 1.159, 40.195,-15.699, 15.952, 0.014, 0.013, 1.037, 201.334 
4937, -2.455, 0.905, 1.159, 40.195,-15.699, 15.952, 0.014, 0.013, 1.037, 201.334 
4948, -2.455, 0.905, 1.159, 40.195,-15.699, 15.952, 0.014, 0.013, 1.037, 201.334 
4968, -2.455, 0.905, 1.159, 40.195,-15.699, 15.952, 0.014, 0.013, 1.037, 201.334 
4980, -2.507, 0.953, 1.095, 40.330,-15.870, 16.073, 0.014, 0.013, 1.037, 201.479 
4991, -2.507, 0.953, 1.095, 40.330,-15.870, 16.073, 0.015, 0.013, 1.037, 201.479 
5002, -2.507, 0.953, 1.095, 40.330,-15.870, 16.073, 0.015, 0.013, 1.037, 201.479 
5012, -2.507, 0.953, 1.095, 40.330,-15.870, 16.073, 0.015, 0.013, 1.037, 201.479 
5023, -2.507, 0.953, 1.095, 40.330,-15.870, 16.073, 0.015, 0.013, 1.037, 201.479 
5034, -2.507, 0.953, 1.095, 40.330,-15.870, 16.073, 0.015, 0.013, 1.037, 201.479 
5045, -2.507, 0.953, 1.095, 40.330,-15.870, 16.073, 0.015, 0.013, 1.037, 201.479 
5056, -2.507, 0.953, 1.095, 40.330,-15.870, 16.073, 0.015, 0.013, 1.037, 201.479 
5067, -2.507, 0.953, 1.095, 40.330,-15.870, 16.073, 0.015, 0.013, 1.037, 201.479 
5079, -2.507, 0.953, 1.095, 40.330,-15.870, 16.073, 0.015, 0.013, 1.037, 201.479 
5091, -2.507, 0.953, 1.095, 40.233,-15.860, 16.022, 0.015, 0.013, 1.037, 201.514 
5104, -2.528, 0.926, 1.119, 40.233,-15.860, 16.022, 0.015, 0.014, 1.038, 201.514 
5115, -2.528, 0.926, 1.119, 40.233,-15.860, 16.022, 0.015, 0.014, 1.038, 201.514 
5126, -2.528, 0.926, 1.119, 40.233,-15.860, 16.022, 0.015, 0.014, 1.038, 201.514 
5136, -2.528, 0.926, 1.119, 40.233,-15.860, 16.022, 0.015, 0.014, 1.038, 201.514 
5148, -2.528, 0.926, 1.119, 40.233,-15.860, 16.022, 0.015, 0.014, 1.038, 201.514 
5159, -2.528, 0.926, 1.119, 40.233,-15.860, 16.022, 0.015, 0.014, 1.038, 201.514 
5170, -2.528, 0.926, 1.119, 40.233,-15.860, 16.022, 0.015, 0.014, 1.038, 201.514 
5181, -2.528, 0.926, 1.119, 40.233,-15.860, 16.022, 0.015, 0.014, 1.038, 201.514 
5192, -2.528, 0.926, 1.119, 40.233,-15.860, 16.022, 0.015, 0.014, 1.038, 201.514 
5203, -2.528, 0.926, 1.119, 40.233,-15.860, 16.022, 0.015, 0.014, 1.038, 201.514 
5215, -2.528, 0.926, 1.119, 40.233,-15.860, 16.022, 0.015, 0.014, 1.038, 201.514 
5228, -2.451, 0.873, 1.131, 40.331,-15.852, 15.865, 0.015, 0.013, 1.038, 201.457 
5239, -2.451, 0.873, 1.131, 40.331,-15.852, 15.865, 0.015, 0.013, 1.038, 201.457 
5250, -2.451, 0.873, 1.131, 40.331,-15.852, 15.865, 0.015, 0.013, 1.038, 201.457 
5261, -2.451, 0.873, 1.131, 40.331,-15.852, 15.865, 0.015, 0.013, 1.038, 201.457 
5272, -2.451, 0.873, 1.131, 40.331,-15.852, 15.865, 0.015, 0.013, 1.038, 201.457 
5283, -2.451, 0.873, 1.131, 40.331,-15.852, 15.865, 0.015, 0.013, 1.038, 201.457 
5294, -2.451, 0.873, 1.131, 40.331,-15.852, 15.865, 0.015, 0.013, 1.038, 201.457 
5305, -2.451, 0.873, 1.131, 40.331,-15.852, 15.865, 0.015, 0.013, 1.038, 201.457 
5316, -2.451, 0.873, 1.131, 40.331,-15.852, 15.865, 0.015, 0.013, 1.038, 201.457 
5327, -2.451, 0.873, 1.131, 40.331,-15.852, 15.865, 0.015, 0.013, 1.038, 201.457 
5341, -2.460, 0.889, 1.163, 40.293,-15.729, 15.856, 0.016, 0.013, 1.037, 201.324 
5352, -2.460, 0.889, 1.163, 40.293,-15.729, 15.856, 0.016, 0.013, 1.037, 201.324 
5362, -2.460, 0.889, 1.163, 40.293,-15.729, 15.856, 0.016, 0.013, 1.037, 201.324 
5373, -2.460, 0.889, 1.163, 40.293,-15.729, 15.856, 0.016, 0.013, 1.037, 201.324 
5384, -2.460, 0.889, 1.163, 40.293,-15.729, 15.856, 0.016, 0.013, 1.037, 201.324 
5395, -2.460, 0.889, 1.163, 40.293,-15.729, 15.856, 0.016, 0.013, 1.037, 201.324 
5407, -2.460, 0.889, 1.163, 40.293,-15.729, 15.856, 0.016, 0.013, 1.037, 201.324 
5418, -2.460, 0.889, 1.163, 40.293,-15.729, 15.856, 0.016, 0.013, 1.037, 201.324 
5429, -2.460, 0.889, 1.163, 40.293,-15.729, 15.856, 0.016, 0.013, 1.037, 201.324 
5440, -2.460, 0.889, 1.163, 40.293,-15.729, 15.856, 0.016, 0.013, 1.037, 201.324 
5451, -2.460, 0.889, 1.163, 40.291,-15.776, 15.995, 0.016, 0.013, 1.037, 201.383 
5462, -2.444, 0.951, 1.101, 40.291,-15.776, 15.995, 0.015, 0.013, 1.038, 201.383 
5473, -2.444, 0.951, 1.101, 40.291,-15.776, 15.995, 0.015, 0.013, 1.038, 201.383 
5484, -2.444, 0.951, 1.101, 40.291,-15.776, 15.995, 0.015, 0.013, 1.038, 201.383 
5495, -2.444, 0.951, 1.101, 40.291,-15.776, 15.995, 0.015, 0.013, 1.038, 201.383 
5506, -2.444, 0.951, 1.101, 40.291,-15.776, 15.995, 0.015, 0.013, 1.038, 201.383 
5517, -2.444, 0.951, 1.101, 40.291,-15.776, 15.995, 0.015, 0.013, 1.038, 201.383 
5528, -2.444, 0.951, 1.101, 40.291,-15.776, 15.995, 0.015, 0.013, 1.038, 201.383 
5540, -2.444, 0.951, 1.101, 40.291,-15.776, 15.995, 0.015, 0.013, 1.038, 201.383 
5551, -2.444, 0.951, 1.101, 40.291,-15.776, 15.995, 0.015, 0.013, 1.038, 201.383 
5564, -2.444, 0.951, 1.101, 40.290,-15.815, 16.107, 0.015, 0.013, 1.038, 201.431 
5575, -2.424, 0.971, 1.107, 40.290,-15.815, 16.107, 0.015, 0.013, 1.038, 201.431 
5587, -2.424, 0.971, 1.107, 40.290,-15.815, 16.107, 0.015, 0.013, 1.038, 201.431 
5598, -2.424, 0.971, 1.107, 40.290,-15.815, 16.107, 0.015, 0.013, 1.038, 201.431 
5609, -2.424, 0.971, 1.107, 40.290,-15.815, 16.107, 0.015, 0.013, 1.038, 201.431 
5620, -2.424, 0.971, 1.107, 40.290,-15.815, 16.107, 0.015, 0.013, 1.038, 201.431 
5631, -2.424, 0.971, 1.107, 40.290,-15.815, 16.107, 0.015, 0.013, 1.038, 201.431 
5642, -2.424, 0.971, 1.107, 40.290,-15.815, 16.107, 0.015, 0.013, 1.038, 201.431 
5654, -2.424, 0.971, 1.107, 40.290,-15.815, 16.107, 0.015, 0.013, 1.038, 201.431 
5665, -2.424, 0.971, 1.107, 40.290,-15.815, 16.107, 0.015, 0.013, 1.038, 201.431 
5678, -2.424, 0.971, 1.107, 40.406,-15.728, 15.962, 0.015, 0.013, 1.038, 201.268 
5689, -2.421, 0.968, 1.140, 40.406,-15.728, 15.962, 0.015, 0.013, 1.037, 201.268 
5700, -2.421, 0.968, 1.140, 40.406,-15.728, 15.962, 0.015, 0.013, 1.037, 201.268 
5711, -2.421, 0.968, 1.140, 40.406,-15.728, 15.962, 0.015, 0.013, 1.037, 201.268 
5722, -2.421, 0.968, 1.140, 40.406,-15.728, 15.962, 0.015, 0.013, 1.037, 201.268 
5733, -2.421, 0.968, 1.140, 40.406,-15.728, 15.962, 0.015, 0.013, 1.037, 201.268 
5744, -2.421, 0.968, 1.140, 40.406,-15.728, 15.962, 0.015, 0.013, 1.037, 201.268 
5755, -2.421, 0.968, 1.140, 40.406,-15.728, 15.962, 0.015, 0.013, 1.037, 201.268 
5766, -2.421, 0.968, 1.140, 40.406,-15.728, 15.962, 0.015, 0.013, 1.037, 201.268 
5777, -2.421, 0.968, 1.140, 40.406,-15.728, 15.962, 0.015, 0.013, 1.037, 201.268 
5792, -2.421, 0.968, 1.140, 40.352,-15.747, 16.109, 0.015, 0.013, 1.037, 201.317 
5803, -2.419, 0.982, 1.120, 40.352,-15.747, 16.109, 0.015, 0.012, 1.037, 201.317 
5814, -2.419, 0.982, 1.120, 40.352,-15.747, 16.109, 0.015, 0.012, 1.037, 201.317 
5824, -2.419, 0.982, 1.120, 40.352,-15.747, 16.109, 0.015, 0.012, 1.037, 201.317 
5835, -2.419, 0.982, 1.120, 40.352,-15.747, 16.109, 0.015, 0.012, 1.037, 201.317 
5846, -2.419, 0.982, 1.120, 40.352,-15.747, 16.109, 0.015, 0.012, 1.037, 201.317 
5857, -2.419, 0.982, 1.120, 40.352,-15.747, 16.109, 0.015, 0.012, 1.037, 201.317 
5869, -2.419, 0.982, 1.120, 40.352,-15.747, 16.109, 0.015, 0.012, 1.037, 201.317 
5880, -2.419, 0.982, 1.120, 40.352,-15.747, 16.109, 0.015, 0.012, 1.037, 201.317 
5891, -2.419, 0.982, 1.120, 40.352,-15.747, 16.109, 0.015, 0.012, 1.037, 201.317 
5903, -2.419, 0.982, 1.120, 40.352,-15.747, 16.109, 0.015, 0.012, 1.037, 201.317 
5914, -2.443, 0.927, 1.111, 40.427,-15.527, 16.169, 0.016, 0.011, 1.037, 201.011 
5925, -2.443, 0.927, 1.111, 40.427,-15.527, 16.169, 0.016, 0.011, 1.037, 201.011 
5935, -2.443, 0.927, 1.111, 40.427,-15.527, 16.169, 0.016, 0.011, 1.037, 201.011 
5946, -2.443, 0.927, 1.111, 40.427,-15.527, 16.169, 0.016, 0.011, 1.037, 201.011 
5958, -2.443, 0.927, 1.111, 40.427,-15.527, 16.169, 0.016, 0.011, 1.037, 201.011 
5969, -2.443, 0.927, 1.111, 40.427,-15.527, 16.169, 0.016, 0.011, 1.037, 201.011 
5980, -2.443, 0.927, 1.111, 40.427,-15.527, 16.169, 0.016, 0.011, 1.037, 201.011 
5991, -2.443, 0.927, 1.111, 40.427,-15.527, 16.169, 0.016, 0.011, 1.037, 201.011 
6008, -2.443, 0.927, 1.111, 40.427,-15.527, 16.169, 0.016, 0.011, 1.037, 201.011 
6019, -2.472, 0.956, 1.089, 40.369,-15.586, 16.216, 0.016, 0.011, 1.037, 201.111 
6030, -2.472, 0.956, 1.089, 40.369,-15.586, 16.216, 0.016, 0.012, 1.036, 201.111 
6041, -2.472, 0.956, 1.089, 40.369,-15.586, 16.216, 0.016, 0.012, 1.036, 201.111 
6052, -2.472, 0.956, 1.089, 40.369,-15.586, 16.216, 0.016, 0.012, 1.036, 201.111 
6063, -2.472, 0.956, 1.089, 40.369,-15.586, 16.216, 0.016, 0.012, 1.036, 201.111 
6074, -2.472, 0.956, 1.089, 40.369,-15.586, 16.216, 0.016, 0.012, 1.036, 201.111 
6085, -2.472, 0.956, 1.089, 40.369,-15.586, 16.216, 0.016, 0.012, 1.036, 201.111 
6096, -2.472, 0.956, 1.089, 40.369,-15.586, 16.216, 0.016, 0.012, 1.036, 201.111 
6107, -2.472, 0.956, 1.089, 40.369,-15.586, 16.216, 0.016, 0.012, 1.036, 201.111 
6119, -2.472, 0.956, 1.089, 40.369,-15.586, 16.216, 0.016, 0.012, 1.036, 201.111 
6130, -2.472, 0.956, 1.089, 40.235,-15.545, 16.167, 0.016, 0.012, 1.036, 201.124 
6142, -2.385, 0.935, 1.094, 40.235,-15.545, 16.167, 0.016, 0.012, 1.037, 201.124 
6153, -2.385, 0.935, 1.094, 40.235,-15.545, 16.167, 0.016, 0.012, 1.037, 201.124 
6164, -2.385, 0.935, 1.094, 40.235,-15.545, 16.167, 0.016, 0.012, 1.037, 201.124 
6175, -2.385, 0.935, 1.094, 40.235,-15.545, 16.167, 0.016, 0.012, 1.037, 201.124 
6186, -2.385, 0.935, 1.094, 40.235,-15.545, 16.167, 0.016, 0.012, 1.037, 201.124 
6197, -2.385, 0.935, 1.094, 40.235,-15.545, 16.167, 0.016, 0.012, 1.037, 201.124 
6209, -2.385, 0.935, 1.094, 40.235,-15.545, 16.167, 0.016, 0.012, 1.037, 201.124 
6220, -2.385, 0.935, 1.094, 40.235,-15.545, 16.167, 0.016, 0.012, 1.037, 201.124 
6231, -2.385, 0.935, 1.094, 40.235,-15.545, 16.167, 0.016, 0.012, 1.037, 201.124 
6242, -2.385, 0.935, 1.094, 40.235,-15.545, 16.167, 0.016, 0.012, 1.037, 201.124 
6256, -2.407, 0.924, 1.105, 40.128,-15.747, 16.068, 0.016, 0.012, 1.037, 201.426 
6268, -2.407, 0.924, 1.105, 40.128,-15.747, 16.068, 0.016, 0.013, 1.037, 201.426 
6279, -2.407, 0.924, 1.105, 40.128,-15.747, 16.068, 0.016, 0.013, 1.037, 201.426 
6290, -2.407, 0.924, 1.105, 40.128,-15.747, 16.068, 0.016, 0.013, 1.037, 201.426 
6301, -2.407, 0.924, 1.105, 40.128,-15.747, 16.068, 0.016, 0.013, 1.037, 201.426 
6312, -2.407, 0.924, 1.105, 40.128,-15.747, 16.068, 0.016, 0.013, 1.037, 201.426 
6323, -2.407, 0.924, 1.105, 40.128,-15.747, 16.068, 0.016, 0.013, 1.037, 201.426 
6334, -2.407, 0.924, 1.105, 40.128,-15.747, 16.068, 0.016, 0.013, 1.037, 201.426 
6345, -2.407, 0.924, 1.105, 40.128,-15.747, 16.068, 0.016, 0.013, 1.037, 201.426 
6356, -2.407, 0.924, 1.105, 40.128,-15.747, 16.068, 0.016, 0.013, 1.037, 201.426 
6367, -2.407, 0.924, 1.105, 40.128,-15.747, 16.068, 0.016, 0.013, 1.037, 201.426 
6379, -2.408, 0.922, 1.125, 40.159,-15.791, 16.224, 0.015, 0.013, 1.037, 201.465 
6391, -2.408, 0.922, 1.125, 40.159,-15.791, 16.224, 0.015, 0.013, 1.037, 201.465 
6402, -2.408, 0.922, 1.125, 40.159,-15.791, 16.224, 0.015, 0.013, 1.037, 201.465 
6412, -2.408, 0.922, 1.125, 40.159,-15.791, 16.224, 0.015, 0.013, 1.037, 201.465 
6424, -2.408, 0.922, 1.125, 40.159,-15.791, 16.224, 0.015, 0.013, 1.037, 201.465 
6435, -2.408, 0.922, 1.125, 40.159,-15.791, 16.224, 0.015, 0.013, 1.037, 201.465 
6446, -2.408, 0.922, 1.125, 40.159,-15.791, 16.224, 0.015, 0.013, 1.037, 201.465 
6457, -2.408, 0.922, 1.125, 40.159,-15.791, 16.224, 0.015, 0.013, 1.037, 201.465 
6468, -2.408, 0.922, 1.125, 40.159,-15.791, 16.224, 0.015, 0.013, 1.037, 201.465 
6479, -2.408, 0.922, 1.125, 40.159,-15.791, 16.224, 0.015, 0.013, 1.037, 201.465 
6490, -2.408, 0.922, 1.125, 40.125,-15.709, 16.114, 0.015, 0.013, 1.037, 201.380 
6501, -2.427, 0.935, 1.105, 40.125,-15.709, 16.114, 0.015, 0.013, 1.038, 201.380 
6512, -2.427, 0.935, 1.105, 40.125,-15.709, 16.114, 0.015, 0.013, 1.038, 201.380 
6523, -2.427, 0.935, 1.105, 40.125,-15.709, 16.114, 0.015, 0.013, 1.038, 201.380 
6534, -2.427, 0.935, 1.105, 40.125,-15.709, 16.114, 0.015, 0.013, 1.038, 201.380 
6545, -2.427, 0.935, 1.105, 40.125,-15.709, 16.114, 0.015, 0.013, 1.038, 201.380 
6556, -2.427, 0.935, 1.105, 40.125,-15.709, 16.114, 0.015, 0.013, 1.038, 201.380 
6568, -2.427, 0.935, 1.105, 40.125,-15.709, 16.114, 0.015, 0.013, 1.038, 201.380 
6579, -2.427, 0.935, 1.105, 40.125,-15.709, 16.114, 0.015, 0.013, 1.038, 201.380 
6590, -2.427, 0.935, 1.105, 40.125,-15.709, 16.114, 0.015, 0.013, 1.038, 201.380 
6602, -2.427, 0.935, 1.105, 40.125,-15.709, 16.114, 0.015, 0.013, 1.038, 201.380 
6615, -2.392, 0.960, 1.137, 40.157,-15.761, 16.026, 0.015, 0.013, 1.039, 201.429 
6626, -2.392, 0.960, 1.137, 40.157,-15.761, 16.026, 0.015, 0.013, 1.039, 201.429 
6637, -2.392, 0.960, 1.137, 40.157,-15.761, 16.026, 0.015, 0.013, 1.039, 201.429 
6648, -2.392, 0.960, 1.137, 40.157,-15.761, 16.026, 0.015, 0.013, 1.039, 201.429 
6659, -2.392, 0.960, 1.137, 40.157,-15.761, 16.026, 0.015, 0.013, 1.039, 201.429 
6670, -2.392, 0.960, 1.137, 40.157,-15.761, 16.026, 0.015, 0.013, 1.039, 201.429 
6681, -2.392, 0.960, 1.137, 40.157,-15.761, 16.026, 0.015, 0.013, 1.039, 201.429 
6692, -2.392, 0.960, 1.137, 40.157,-15.761, 16.026, 0.015, 0.013, 1.039, 201.429 
6704, -2.392, 0.960, 1.137, 40.157,-15.761, 16.026, 0.015, 0.013, 1.039, 201.429 
6716, -2.392, 0.960, 1.137, 40.157,-15.761, 16.026, 0.015, 0.013, 1.039, 201.429 
6729, -2.400, 0.988, 1.169, 40.241,-15.860, 15.838, 0.015, 0.013, 1.039, 201.511 
6740, -2.400, 0.988, 1.169, 40.241,-15.860, 15.838, 0.015, 0.013, 1.039, 201.511 
6751, -2.400, 0.988, 1.169, 40.241,-15.860, 15.838, 0.015, 0.013, 1.039, 201.511 
6762, -2.400, 0.988, 1.169, 40.241,-15.860, 15.838, 0.015, 0.013, 1.039, 201.511 
6773, -2.400, 0.988, 1.169, 40.241,-15.860, 15.838, 0.015, 0.013, 1.039, 201.511 
6784, -2.400, 0.988, 1.169, 40.241,-15.860, 15.838, 0.015, 0.013, 1.039, 201.511 
6795, -2.400, 0.988, 1.169, 40.241,-15.860, 15.838, 0.015, 0.013, 1.039, 201.511 
6806, -2.400, 0.988, 1.169, 40.241,-15.860, 15.838, 0.015, 0.013, 1.039, 201.511 
6817, -2.400, 0.988, 1.169, 40.241,-15.860, 15.838, 0.015, 0.013, 1.039, 201.511 
6831, -2.400, 0.988, 1.169, 40.241,-15.860, 15.838, 0.015, 0.013, 1.039, 201.511 
6843, -2.385, 0.965, 1.097, 40.250,-15.647, 15.864, 0.015, 0.013, 1.038, 201.244 
6854, -2.385, 0.965, 1.097, 40.250,-15.647, 15.864, 0.015, 0.013, 1.038, 201.244 
6865, -2.385, 0.965, 1.097, 40.250,-15.647, 15.864, 0.015, 0.013, 1.038, 201.244 
6876, -2.385, 0.965, 1.097, 40.250,-15.647, 15.864, 0.015, 0.013, 1.038, 201.244 
6887, -2.385, 0.965, 1.097, 40.250,-15.647, 15.864, 0.015, 0.013, 1.038, 201.244 
6898, -2.385, 0.965, 1.097, 40.250,-15.647, 15.864, 0.015, 0.013, 1.038, 201.244 
6909, -2.385, 0.965, 1.097, 40.250,-15.647, 15.864, 0.015, 0.013, 1.038, 201.244 
6920, -2.385, 0.965, 1.097, 40.250,-15.647, 15.864, 0.015, 0.013, 1.038, 201.244 
6932, -2.385, 0.965, 1.097, 40.250,-15.647, 15.864, 0.015, 0.013, 1.038, 201.244 
6943, -2.385, 0.965, 1.097, 40.250,-15.647, 15.864, 0.015, 0.013, 1.038, 201.244 
6954, -2.420, 0.911, 1.122, 40.550,-15.770, 15.885, 0.015, 0.013, 1.038, 201.251 
6965, -2.420, 0.911, 1.122, 40.550,-15.770, 15.885, 0.015, 0.013, 1.038, 201.251 
6976, -2.420, 0.911, 1.122, 40.550,-15.770, 15.885, 0.015, 0.013, 1.038, 201.251 
6987, -2.420, 0.911, 1.122, 40.550,-15.770, 15.885, 0.015, 0.013, 1.038, 201.251 
6998, -2.420, 0.911, 1.122, 40.550,-15.770, 15.885, 0.015, 0.013, 1.038, 201.251 
7009, -2.420, 0.911, 1.122, 40.550,-15.770, 15.885, 0.015, 0.013, 1.038, 201.251 
7020, -2.420, 0.911, 1.122, 40.550,-15.770, 15.885, 0.015, 0.013, 1.038, 201.251 
7031, -2.420, 0.911, 1.122, 40.550,-15.770, 15.885, 0.015, 0.013, 1.038, 201.251 
7042, -2.420, 0.911, 1.122, 40.550,-15.770, 15.885, 0.015, 0.013, 1.038, 201.251 
7054, -2.420, 0.911, 1.122, 40.550,-15.770, 15.885, 0.015, 0.013, 1.038, 201.251 
7065, -2.445, 0.969, 1.131, 40.790,-15.868, 15.901, 0.015, 0.013, 1.038, 201.257 
7076, -2.445, 0.969, 1.131, 40.790,-15.868, 15.901, 0.015, 0.013, 1.038, 201.257 
7087, -2.445, 0.969, 1.131, 40.790,-15.868, 15.901, 0.015, 0.013, 1.038, 201.257 
7098, -2.445, 0.969, 1.131, 40.790,-15.868, 15.901, 0.015, 0.013, 1.038, 201.257 
7109, -2.445, 0.969, 1.131, 40.790,-15.868, 15.901, 0.015, 0.013, 1.038, 201.257 
7120, -2.445, 0.969, 1.131, 40.790,-15.868, 15.901, 0.015, 0.013, 1.038, 201.257 
7131, -2.445, 0.969, 1.131, 40.790,-15.868, 15.901, 0.015, 0.013, 1.038, 201.257 
7142, -2.445, 0.969, 1.131, 40.790,-15.868, 15.901, 0.015, 0.013, 1.038, 201.257 
7153, -2.445, 0.969, 1.131, 40.790,-15.868, 15.901, 0.015, 0.013, 1.038, 201.257 
7164, -2.445, 0.969, 1.131, 40.790,-15.868, 15.901, 0.015, 0.013, 1.038, 201.257 
7177, -2.445, 0.969, 1.131, 40.982,-15.946, 15.915, 0.015, 0.013, 1.038, 201.262 
7191, -2.461, 0.993, 1.158, 40.982,-15.946, 15.915, 0.016, 0.013, 1.038, 201.262 
7202, -2.461, 0.993, 1.158, 40.982,-15.946, 15.915, 0.016, 0.013, 1.038, 201.262 
7213, -2.461, 0.993, 1.158, 40.982,-15.946, 15.915, 0.016, 0.013, 1.038, 201.262 
7224, -2.461, 0.993, 1.158, 40.982,-15.946, 15.915, 0.016, 0.013, 1.038, 201.262 
7235, -2.461, 0.993, 1.158, 40.982,-15.946, 15.915, 0.016, 0.013, 1.038, 201.262 
7246, -2.461, 0.993, 1.158, 40.982,-15.946, 15.915, 0.016, 0.013, 1.038, 201.262 
7257, -2.461, 0.993, 1.158, 40.982,-15.946, 15.915, 0.016, 0.013, 1.038, 201.262 
7268, -2.461, 0.993, 1.158, 40.982,-15.946, 15.915, 0.016, 0.013, 1.038, 201.262 
7279, -2.461, 0.993, 1.158, 40.982,-15.946, 15.915, 0.016, 0.013, 1.038, 201.262 
7290, -2.461, 0.993, 1.158, 40.982,-15.946, 15.915, 0.016, 0.013, 1.038, 201.262 
7304, -2.445, 0.918, 1.151, 40.725,-15.892, 16.042, 0.016, 0.013, 1.037, 201.317 
7314, -2.445, 0.918, 1.151, 40.725,-15.892, 16.042, 0.016, 0.013, 1.037, 201.317 
7325, -2.445, 0.918, 1.151, 40.725,-15.892, 16.042, 0.016, 0.013, 1.037, 201.317 
7336, -2.445, 0.918, 1.151, 40.725,-15.892, 16.042, 0.016, 0.013, 1.037, 201.317 
7348, -2.445, 0.918, 1.151, 40.725,-15.892, 16.042, 0.016, 0.013, 1.037, 201.317 
7359, -2.445, 0.918, 1.151, 40.725,-15.892, 16.042, 0.016, 0.013, 1.037, 201.317 
7370, -2.445, 0.918, 1.151, 40.725,-15.892, 16.042, 0.016, 0.013, 1.037, 201.317 
7381, -2.445, 0.918, 1.151, 40.725,-15.892, 16.042, 0.016, 0.013, 1.037, 201.317 
7392, -2.445, 0.918, 1.151, 40.725,-15.892, 16.042, 0.016, 0.013, 1.037, 201.317 
7403, -2.445, 0.918, 1.151, 40.725,-15.892, 16.042, 0.016, 0.013, 1.037, 201.317 
7414, -2.428, 0.908, 1.160, 40.637,-15.966, 16.086, 0.016, 0.013, 1.037, 201.449 
7425, -2.428, 0.908, 1.160, 40.637,-15.966, 16.086, 0.016, 0.014, 1.037, 201.449 
7436, -2.428, 0.908, 1.160, 40.637,-15.966, 16.086, 0.016, 0.014, 1.037, 201.449 
7447, -2.428, 0.908, 1.160, 40.637,-15.966, 16.086, 0.016, 0.014, 1.037, 201.449 
7458, -2.428, 0.908, 1.160, 40.637,-15.966, 16.086, 0.016, 0.014, 1.037, 201.449 
7469, -2.428, 0.908, 1.160, 40.637,-15.966, 16.086, 0.016, 0.014, 1.037, 201.449 
7480, -2.428, 0.908, 1.160, 40.637,-15.966, 16.086, 0.016, 0.014, 1.037, 201.449 
7491, -2.428, 0.908, 1.160, 40.637,-15.966, 16.086, 0.016, 0.014, 1.037, 201.449 
7503, -2.428, 0.908, 1.160, 40.637,-15.966, 16.086, 0.016, 0.014, 1.037, 201.449 
7514, -2.428, 0.908, 1.160, 40.637,-15.966, 16.086, 0.016, 0.014, 1.037, 201.449 
7526, -2.428, 0.908, 1.160, 40.637,-15.966, 16.086, 0.016, 0.014, 1.037, 201.449 
7539, -2.407, 0.861, 1.177, 40.273,-15.966, 16.004, 0.017, 0.014, 1.036, 201.625 
7550, -2.407, 0.861, 1.177, 40.273,-15.966, 16.004, 0.017, 0.014, 1.036, 201.625 
7561, -2.407, 0.861, 1.177, 40.273,-15.966, 16.004, 0.017, 0.014, 1.036, 201.625 
7572, -2.407, 0.861, 1.177, 40.273,-15.966, 16.004, 0.017, 0.014, 1.036, 201.625 
7583, -2.407, 0.861, 1.177, 40.273,-15.966, 16.004, 0.017, 0.014, 1.036, 201.625 
7594, -2.407, 0.861, 1.177, 40.273,-15.966, 16.004, 0.017, 0.014, 1.036, 201.625 
7605, -2.407, 0.861, 1.177, 40.273,-15.966, 16.004, 0.017, 0.014, 1.036, 201.625 
7616, -2.407, 0.861, 1.177, 40.273,-15.966, 16.004, 0.017, 0.014, 1.036, 201.625 
7627, -2.407, 0.861, 1.177, 40.273,-15.966, 16.004, 0.017, 0.014, 1.036, 201.625 
7639, -2.407, 0.861, 1.177, 40.273,-15.966, 16.004, 0.017, 0.014, 1.036, 201.625 
7652, -2.477, 0.880, 1.167, 40.305,-15.820, 16.026, 0.017, 0.013, 1.036, 201.430 
7663, -2.477, 0.880, 1.167, 40.305,-15.820, 16.026, 0.017, 0.013, 1.036, 201.430 
7674, -2.477, 0.880, 1.167, 40.305,-15.820, 16.026, 0.017, 0.013, 1.036, 201.430 
7685, -2.477, 0.880, 1.167, 40.305,-15.820, 16.026, 0.017, 0.013, 1.036, 201.430 
7696, -2.477, 0.880, 1.167, 40.305,-15.820, 16.026, 0.017, 0.013, 1.036, 201.430 
7707, -2.477, 0.880, 1.167, 40.305,-15.820, 16.026, 0.017, 0.013, 1.036, 201.430 
7718, -2.477, 0.880, 1.167, 40.305,-15.820, 16.026, 0.017, 0.013, 1.036, 201.430 
7729, -2.477, 0.880, 1.167, 40.305,-15.820, 16.026, 0.017, 0.013, 1.036, 201.430 
7740, -2.477, 0.880, 1.167, 40.305,-15.820, 16.026, 0.017, 0.013, 1.036, 201.430 
7753, -2.477, 0.880, 1.167, 40.154,-15.820, 16.043, 0.017, 0.013, 1.036, 201.503 
7765, -2.429, 0.852, 1.146, 40.154,-15.820, 16.043, 0.016, 0.013, 1.037, 201.503 
7776, -2.429, 0.852, 1.146, 40.154,-15.820, 16.043, 0.016, 0.013, 1.037, 201.503 
7787, -2.429, 0.852, 1.146, 40.154,-15.820, 16.043, 0.016, 0.013, 1.037, 201.503 
7798, -2.429, 0.852, 1.146, 40.154,-15.820, 16.043, 0.016, 0.013, 1.037, 201.503 
7809, -2.429, 0.852, 1.146, 40.154,-15.820, 16.043, 0.016, 0.013, 1.037, 201.503 
7821, -2.429, 0.852, 1.146, 40.154,-15.820, 16.043, 0.016, 0.013, 1.037, 201.503 
7832, -2.429, 0.852, 1.146, 40.154,-15.820, 16.043, 0.016, 0.013, 1.037, 201.503 
7843, -2.429, 0.852, 1.146, 40.154,-15.820, 16.043, 0.016, 0.013, 1.037, 201.503 
7854, -2.429, 0.852, 1.146, 40.154,-15.820, 16.043, 0.016, 0.013, 1.037, 201.503 
7867, -2.391, 0.845, 1.184, 40.151,-15.820, 15.999, 0.016, 0.013, 1.037, 201.505 
7878, -2.391, 0.845, 1.184, 40.151,-15.820, 15.999, 0.016, 0.013, 1.036, 201.505 
7889, -2.391, 0.845, 1.184, 40.151,-15.820, 15.999, 0.016, 0.013, 1.036, 201.505 
7900, -2.391, 0.845, 1.184, 40.151,-15.820, 15.999, 0.016, 0.013, 1.036, 201.505 
7911, -2.391, 0.845, 1.184, 40.151,-15.820, 15.999, 0.016, 0.013, 1.036, 201.505 
7922, -2.391, 0.845, 1.184, 40.151,-15.820, 15.999, 0.016, 0.013, 1.036, 201.505 
7933, -2.391, 0.845, 1.184, 40.151,-15.820, 15.999, 0.016, 0.013, 1.036, 201.505 
7944, -2.391, 0.845, 1.184, 40.151,-15.820, 15.999, 0.016, 0.013, 1.036, 201.505 
7955, -2.391, 0.845, 1.184, 40.151,-15.820, 15.999, 0.016, 0.013, 1.036, 201.505 
7966, -2.391, 0.845, 1.184, 40.151,-15.820, 15.999, 0.016, 0.013, 1.036, 201.505 
7977, -2.391, 0.845, 1.184, 40.148,-15.879, 15.963, 0.016, 0.013, 1.036, 201.579 
7991, -2.434, 0.929, 1.162, 40.148,-15.879, 15.963, 0.017, 0.014, 1.035, 201.579 
8002, -2.434, 0.929, 1.162, 40.148,-15.879, 15.963, 0.017, 0.014, 1.035, 201.579 
8013, -2.434, 0.929, 1.162, 40.148,-15.879, 15.963, 0.017, 0.014, 1.035, 201.579 
8024, -2.434, 0.929, 1.162, 40.148,-15.879, 15.963, 0.017, 0.014, 1.035, 201.579 
8035, -2.434, 0.929, 1.162, 40.148,-15.879, 15.963, 0.017, 0.014, 1.035, 201.579 
8046, -2.434, 0.929, 1.162, 40.148,-15.879, 15.963, 0.017, 0.014, 1.035, 201.579 
8057, -2.434, 0.929, 1.162, 40.148,-15.879, 15.963, 0.017, 0.014, 1.035, 201.579 
8068, -2.434, 0.929, 1.162, 40.148,-15.879, 15.963, 0.017, 0.014, 1.035, 201.579 
8080, -2.434, 0.929, 1.162, 40.148,-15.879, 15.963, 0.017, 0.014, 1.035, 201.579 
8091, -2.434, 0.929, 1.162, 40.148,-15.879, 15.963, 0.017, 0.014, 1.035, 201.579 
8102, -2.405, 0.942, 1.178, 40.029,-15.809, 15.935, 0.017, 0.013, 1.036, 201.550 
8113, -2.405, 0.942, 1.178, 40.029,-15.809, 15.935, 0.017, 0.013, 1.036, 201.550 
8124, -2.405, 0.942, 1.178, 40.029,-15.809, 15.935, 0.017, 0.013, 1.036, 201.550 
8134, -2.405, 0.942, 1.178, 40.029,-15.809, 15.935, 0.017, 0.013, 1.036, 201.550 
8145, -2.405, 0.942, 1.178, 40.029,-15.809, 15.935, 0.017, 0.013, 1.036, 201.550 
8157, -2.405, 0.942, 1.178, 40.029,-15.809, 15.935, 0.017, 0.013, 1.036, 201.550 
8168, -2.405, 0.942, 1.178, 40.029,-15.809, 15.935, 0.017, 0.013, 1.036, 201.550 
8179, -2.405, 0.942, 1.178, 40.029,-15.809, 15.935, 0.017, 0.013, 1.036, 201.550 
8190, -2.405, 0.942, 1.178, 40.029,-15.809, 15.935, 0.017, 0.013, 1.036, 201.550 
8202, -2.405, 0.942, 1.178, 40.029,-15.809, 15.935, 0.017, 0.013, 1.036, 201.550 
8214, -2.424, 0.903, 1.152, 40.080,-15.782, 16.058, 0.017, 0.012, 1.036, 201.492 
8225, -2.424, 0.903, 1.152, 40.080,-15.782, 16.058, 0.017, 0.012, 1.036, 201.492 
8236, -2.424, 0.903, 1.152, 40.080,-15.782, 16.058, 0.017, 0.012, 1.036, 201.492 
8247, -2.424, 0.903, 1.152, 40.080,-15.782, 16.058, 0.017, 0.012, 1.036, 201.492 
8259, -2.424, 0.903, 1.152, 40.080,-15.782, 16.058, 0.017, 0.012, 1.036, 201.492 
8270, -2.424, 0.903, 1.152, 40.080,-15.782, 16.058, 0.017, 0.012, 1.036, 201.492 
8281, -2.424, 0.903, 1.152, 40.080,-15.782, 16.058, 0.017, 0.012, 1.036, 201.492 
8292, -2.424, 0.903, 1.152, 40.080,-15.782, 16.058, 0.017, 0.012, 1.036, 201.492 
8303, -2.424, 0.903, 1.152, 40.080,-15.782, 16.058, 0.017, 0.012, 1.036, 201.492 
8314, -2.424, 0.903, 1.152, 40.080,-15.782, 16.058, 0.017, 0.012, 1.036, 201.492 
8330, -2.423, 0.881, 1.147, 40.033,-15.672, 16.128, 0.016, 0.011, 1.036, 201.380 
8341, -2.423, 0.881, 1.147, 40.033,-15.672, 16.128, 0.016, 0.011, 1.036, 201.380 
8352, -2.423, 0.881, 1.147, 40.033,-15.672, 16.128, 0.016, 0.011, 1.036, 201.380 
8363, -2.423, 0.881, 1.147, 40.033,-15.672, 16.128, 0.016, 0.011, 1.036, 201.380 
8374, -2.423, 0.881, 1.147, 40.033,-15.672, 16.128, 0.016, 0.011, 1.036, 201.380 
8386, -2.423, 0.881, 1.147, 40.033,-15.672, 16.128, 0.016, 0.011, 1.036, 201.380 
8397, -2.423, 0.881, 1.147, 40.033,-15.672, 16.128, 0.016, 0.011, 1.036, 201.380 
8408, -2.423, 0.881, 1.147, 40.033,-15.672, 16.128, 0.016, 0.011, 1.036, 201.380 
8419, -2.423, 0.881, 1.147, 40.033,-15.672, 16.128, 0.016, 0.011, 1.036, 201.380 
8430, -2.423, 0.881, 1.147, 40.033,-15.672, 16.128, 0.016, 0.011, 1.036, 201.380 
8441, -2.423, 0.881, 1.147, 39.937,-15.761, 16.067, 0.016, 0.011, 1.036, 201.536 
8453, -2.453, 0.866, 1.173, 39.937,-15.761, 16.067, 0.016, 0.012, 1.036, 201.536 
8464, -2.453, 0.866, 1.173, 39.937,-15.761, 16.067, 0.016, 0.012, 1.036, 201.536 
8475, -2.453, 0.866, 1.173, 39.937,-15.761, 16.067, 0.016, 0.012, 1.036, 201.536 
8486, -2.453, 0.866, 1.173, 39.937,-15.761, 16.067, 0.016, 0.012, 1.036, 201.536 
8497, -2.453, 0.866, 1.173, 39.937,-15.761, 16.067, 0.016, 0.012, 1.036, 201.536 
8508, -2.453, 0.866, 1.173, 39.937,-15.761, 16.067, 0.016, 0.012, 1.036, 201.536 
8519, -2.453, 0.866, 1.173, 39.937,-15.761, 16.067, 0.016, 0.012, 1.036, 201.536 
8530, -2.453, 0.866, 1.173, 39.937,-15.761, 16.067, 0.016, 0.012, 1.036, 201.536 
8541, -2.453, 0.866, 1.173, 39.937,-15.761, 16.067, 0.016, 0.012, 1.036, 201.536 
8555, -2.453, 0.866, 1.173, 39.919,-15.714, 16.135, 0.016, 0.012, 1.036, 201.487 
8566, -2.421, 0.910, 1.176, 39.919,-15.714, 16.135, 0.016, 0.012, 1.037, 201.487 
8577, -2.421, 0.910, 1.176, 39.919,-15.714, 16.135, 0.016, 0.012, 1.037, 201.487 
8588, -2.421, 0.910, 1.176, 39.919,-15.714, 16.135, 0.016, 0.012, 1.037, 201.487 
8599, -2.421, 0.910, 1.176, 39.919,-15.714, 16.135, 0.016, 0.012, 1.037, 201.487 
8610, -2.421, 0.910, 1.176, 39.919,-15.714, 16.135, 0.016, 0.012, 1.037, 201.487 
8622, -2.421, 0.910, 1.176, 39.919,-15.714, 16.135, 0.016, 0.012, 1.037, 201.487 
8633, -2.421, 0.910, 1.176, 39.919,-15.714, 16.135, 0.016, 0.012, 1.037, 201.487 
8644, -2.421, 0.910, 1.176, 39.919,-15.714, 16.135, 0.016, 0.012, 1.037, 201.487 
8656, -2.421, 0.910, 1.176, 39.919,-15.714, 16.135, 0.016, 0.012, 1.037, 201.487 
8670, -2.451, 0.931, 1.148, 39.816,-15.706, 15.925, 0.016, 0.012, 1.037, 201.528 
8681, -2.451, 0.931, 1.148, 39.816,-15.706, 15.925, 0.016, 0.012, 1.037, 201.528 
8692, -2.451, 0.931, 1.148, 39.816,-15.706, 15.925, 0.016, 0.012, 1.037, 201.528 
8703, -2.451, 0.931, 1.148, 39.816,-15.706, 15.925, 0.016, 0.012, 1.037, 201.528 
8714, -2.451, 0.931, 1.148, 39.816,-15.706, 15.925, 0.016, 0.012, 1.037, 201.528 
8725, -2.451, 0.931, 1.148, 39.816,-15.706, 15.925, 0.016, 0.012, 1.037, 201.528 
8736, -2.451, 0.931, 1.148, 39.816,-15.706, 15.925, 0.016, 0.012, 1.037, 201.528 
8747, -2.451, 0.931, 1.148, 39.816,-15.706, 15.925, 0.016, 0.012, 1.037, 201.528 
8758, -2.451, 0.931, 1.148, 39.816,-15.706, 15.925, 0.016, 0.012, 1.037, 201.528 
8769, -2.451, 0.931, 1.148, 39.816,-15.706, 15.925, 0.016, 0.012, 1.037, 201.528 
8782, -2.451, 0.931, 1.148, 39.734,-15.700, 15.758, 0.016, 0.012, 1.037, 201.560 
8793, -2.419, 0.916, 1.111, 39.734,-15.700, 15.758, 0.015, 0.012, 1.037, 201.560 
8804, -2.419, 0.916, 1.111, 39.734,-15.700, 15.758, 0.015, 0.012, 1.037, 201.560 
8815, -2.419, 0.916, 1.111, 39.734,-15.700, 15.758, 0.015, 0.012, 1.037, 201.560 
8826, -2.419, 0.916, 1.111, 39.734,-15.700, 15.758, 0.015, 0.012, 1.037, 201.560 
8837, -2.419, 0.916, 1.111, 39.734,-15.700, 15.758, 0.015, 0.012, 1.037, 201.560 
8848, -2.419, 0.916, 1.111, 39.734,-15.700, 15.758, 0.015, 0.012, 1.037, 201.560 
8859, -2.419, 0.916, 1.111, 39.734,-15.700, 15.758, 0.015, 0.012, 1.037, 201.560 
8871, -2.419, 0.916, 1.111, 39.734,-15.700, 15.758, 0.015, 0.012, 1.037, 201.560 
8882, -2.419, 0.916, 1.111, 39.734,-15.700, 15.758, 0.015, 0.012, 1.037, 201.560 
8894, -2.419, 0.916, 1.111, 39.734,-15.700, 15.758, 0.015, 0.012, 1.037, 201.560 
8906, -2.443, 0.890, 1.072, 39.815,-15.607, 15.771, 0.015, 0.012, 1.038, 201.404 
8917, -2.443, 0.890, 1.072, 39.815,-15.607, 15.771, 0.015, 0.012, 1.038, 201.404 
8928, -2.443, 0.890, 1.072, 39.815,-15.607, 15.771, 0.015, 0.012, 1.038, 201.404 
8940, -2.443, 0.890, 1.072, 39.815,-15.607, 15.771, 0.015, 0.012, 1.038, 201.404 
8951, -2.443, 0.890, 1.072, 39.815,-15.607, 15.771, 0.015, 0.012, 1.038, 201.404 
8962, -2.443, 0.890, 1.072, 39.815,-15.607, 15.771, 0.015, 0.012, 1.038, 201.404 
8973, -2.443, 0.890, 1.072, 39.815,-15.607, 15.771, 0.015, 0.012, 1.038, 201.404 
8984, -2.443, 0.890, 1.072, 39.815,-15.607, 15.771, 0.015, 0.012, 1.038, 201.404 
8996, -2.443, 0.890, 1.072, 39.815,-15.607, 15.771, 0.015, 0.012, 1.038, 201.404 
9009, -2.458, 0.904, 1.067, 39.704,-15.650, 15.781, 0.015, 0.012, 1.038, 201.512 
9020, -2.458, 0.904, 1.067, 39.704,-15.650, 15.781, 0.016, 0.013, 1.039, 201.512 
9031, -2.458, 0.904, 1.067, 39.704,-15.650, 15.781, 0.016, 0.013, 1.039, 201.512 
9042, -2.458, 0.904, 1.067, 39.704,-15.650, 15.781, 0.016, 0.013, 1.039, 201.512 
9053, -2.458, 0.904, 1.067, 39.704,-15.650, 15.781, 0.016, 0.013, 1.039, 201.512 
9065, -2.458, 0.904, 1.067, 39.704,-15.650, 15.781, 0.016, 0.013, 1.039, 201.512 
9076, -2.458, 0.904, 1.067, 39.704,-15.650, 15.781, 0.016, 0.013, 1.039, 201.512 
9087, -2.458, 0.904, 1.067, 39.704,-15.650, 15.781, 0.016, 0.013, 1.039, 201.512 
9098, -2.458, 0.904, 1.067, 39.704,-15.650, 15.781, 0.016, 0.013, 1.039, 201.512 
9110, -2.458, 0.904, 1.067, 39.704,-15.650, 15.781, 0.016, 0.013, 1.039, 201.512 
9121, -2.458, 0.904, 1.067, 39.704,-15.650, 15.781, 0.016, 0.013, 1.039, 201.512 
9133, -2.441, 0.928, 1.096, 39.995,-15.713, 15.818, 0.016, 0.012, 1.038, 201.448 
9144, -2.441, 0.928, 1.096, 39.995,-15.713, 15.818, 0.016, 0.012, 1.038, 201.448 
9155, -2.441, 0.928, 1.096, 39.995,-15.713, 15.818, 0.016, 0.012, 1.038, 201.448 
9166, -2.441, 0.928, 1.096, 39.995,-15.713, 15.818, 0.016, 0.012, 1.038, 201.448 
9177, -2.441, 0.928, 1.096, 39.995,-15.713, 15.818, 0.016, 0.012, 1.038, 201.448 
9188, -2.441, 0.928, 1.096, 39.995,-15.713, 15.818, 0.016, 0.012, 1.038, 201.448 
9199, -2.441, 0.928, 1.096, 39.995,-15.713, 15.818, 0.016, 0.012, 1.038, 201.448 
9210, -2.441, 0.928, 1.096, 39.995,-15.713, 15.818, 0.016, 0.012, 1.038, 201.448 
9221, -2.441, 0.928, 1.096, 39.995,-15.713, 15.818, 0.016, 0.012, 1.038, 201.448 
9233, -2.441, 0.928, 1.096, 39.995,-15.713, 15.818, 0.016, 0.012, 1.038, 201.448 
9245, -2.421, 0.918, 1.066, 40.141,-15.617, 16.053, 0.016, 0.011, 1.038, 201.259 
9256, -2.421, 0.918, 1.066, 40.141,-15.617, 16.053, 0.016, 0.011, 1.038, 201.259 
9267, -2.421, 0.918, 1.066, 40.141,-15.617, 16.053, 0.016, 0.011, 1.038, 201.259 
9278, -2.421, 0.918, 1.066, 40.141,-15.617, 16.053, 0.016, 0.011, 1.038, 201.259 
9289, -2.421, 0.918, 1.066, 40.141,-15.617, 16.053, 0.016, 0.011, 1.038, 201.259 
9301, -2.421, 0.918, 1.066, 40.141,-15.617, 16.053, 0.016, 0.011, 1.038, 201.259 
9312, -2.421, 0.918, 1.066, 40.141,-15.617, 16.053, 0.016, 0.011, 1.038, 201.259 
9323, -2.421, 0.918, 1.066, 40.141,-15.617, 16.053, 0.016, 0.011, 1.038, 201.259 
9334, -2.421, 0.918, 1.066, 40.141,-15.617, 16.053, 0.016, 0.011, 1.038, 201.259 
9345, -2.421, 0.918, 1.066, 40.141,-15.617, 16.053, 0.016, 0.011, 1.038, 201.259 
9361, -2.428, 0.948, 1.056, 40.199,-15.541, 16.006, 0.016, 0.012, 1.038, 201.136 
9372, -2.428, 0.948, 1.056, 40.199,-15.541, 16.006, 0.016, 0.012, 1.038, 201.136 
9383, -2.428, 0.948, 1.056, 40.199,-15.541, 16.006, 0.016, 0.012, 1.038, 201.136 
9394, -2.428, 0.948, 1.056, 40.199,-15.541, 16.006, 0.016, 0.012, 1.038, 201.136 
9405, -2.428, 0.948, 1.056, 40.199,-15.541, 16.006, 0.016, 0.012, 1.038, 201.136 
9416, -2.428, 0.948, 1.056, 40.199,-15.541, 16.006, 0.016, 0.012, 1.038, 201.136 
9427, -2.428, 0.948, 1.056, 40.199,-15.541, 16.006, 0.016, 0.012, 1.038, 201.136 
9438, -2.428, 0.948, 1.056, 40.199,-15.541, 16.006, 0.016, 0.012, 1.038, 201.136 
9450, -2.428, 0.948, 1.056, 40.199,-15.541, 16.006, 0.016, 0.012, 1.038, 201.136 
9461, -2.428, 0.948, 1.056, 40.199,-15.541, 16.006, 0.016, 0.012, 1.038, 201.136 
9472, -2.428, 0.948, 1.056, 40.070,-15.538, 15.911, 0.016, 0.012, 1.038, 201.195 
9483, -2.448, 0.967, 1.081, 40.070,-15.538, 15.911, 0.015, 0.012, 1.039, 201.195 
9494, -2.448, 0.967, 1.081, 40.070,-15.538, 15.911, 0.015, 0.012, 1.039, 201.195 
9505, -2.448, 0.967, 1.081, 40.070,-15.538, 15.911, 0.015, 0.012, 1.039, 201.195 
9516, -2.448, 0.967, 1.081, 40.070,-15.538, 15.911, 0.015, 0.012, 1.039, 201.195 
9527, -2.448, 0.967, 1.081, 40.070,-15.538, 15.911, 0.015, 0.012, 1.039, 201.195 
9538, -2.448, 0.967, 1.081, 40.070,-15.538, 15.911, 0.015, 0.012, 1.039, 201.195 
9550, -2.448, 0.967, 1.081, 40.070,-15.538, 15.911, 0.015, 0.012, 1.039, 201.195 
9561, -2.448, 0.967, 1.081, 40.070,-15.538, 15.911, 0.015, 0.012, 1.039, 201.195 
9573, -2.448, 0.967, 1.081, 40.070,-15.538, 15.911, 0.015, 0.012, 1.039, 201.195 
9585, -2.448, 0.967, 1.081, 40.171,-15.448, 15.805, 0.015, 0.012, 1.039, 201.035 
9596, -2.411, 1.003, 1.069, 40.171,-15.448, 15.805, 0.015, 0.012, 1.039, 201.035 
9607, -2.411, 1.003, 1.069, 40.171,-15.448, 15.805, 0.015, 0.012, 1.039, 201.035 
9618, -2.411, 1.003, 1.069, 40.171,-15.448, 15.805, 0.015, 0.012, 1.039, 201.035 
9630, -2.411, 1.003, 1.069, 40.171,-15.448, 15.805, 0.015, 0.012, 1.039, 201.035 
9641, -2.411, 1.003, 1.069, 40.171,-15.448, 15.805, 0.015, 0.012, 1.039, 201.035 
9652, -2.411, 1.003, 1.069, 40.171,-15.448, 15.805, 0.015, 0.012, 1.039, 201.035 
9663, -2.411, 1.003, 1.069, 40.171,-15.448, 15.805, 0.015, 0.012, 1.039, 201.035 
9674, -2.411, 1.003, 1.069, 40.171,-15.448, 15.805, 0.015, 0.012, 1.039, 201.035 
9687, -2.411, 1.003, 1.069, 40.171,-15.448, 15.805, 0.015, 0.012, 1.039, 201.035 
9698, -2.411, 1.003, 1.069, 40.194,-15.435, 15.779, 0.015, 0.012, 1.039, 201.007 
9709, -2.384, 0.997, 1.126, 40.194,-15.435, 15.779, 0.015, 0.012, 1.038, 201.007 
9720, -2.384, 0.997, 1.126, 40.194,-15.435, 15.779, 0.015, 0.012, 1.038, 201.007 
9731, -2.384, 0.997, 1.126, 40.194,-15.435, 15.779, 0.015, 0.012, 1.038, 201.007 
9742, -2.384, 0.997, 1.126, 40.194,-15.435, 15.779, 0.015, 0.012, 1.038, 201.007 
9753, -2.384, 0.997, 1.126, 40.194,-15.435, 15.779, 0.015, 0.012, 1.038, 201.007 
9764, -2.384, 0.997, 1.126, 40.194,-15.435, 15.779, 0.015, 0.012, 1.038, 201.007 
9775, -2.384, 0.997, 1.126, 40.194,-15.435, 15.779, 0.015, 0.012, 1.038, 201.007 
9786, -2.384, 0.997, 1.126, 40.194,-15.435, 15.779, 0.015, 0.012, 1.038, 201.007 
9798, -2.384, 0.997, 1.126, 40.194,-15.435, 15.779, 0.015, 0.012, 1.038, 201.007 
9812, -2.384, 0.997, 1.126, 40.329,-15.600, 15.641, 0.015, 0.012, 1.038, 201.147 
9823, -2.432, 0.960, 1.129, 40.329,-15.600, 15.641, 0.015, 0.012, 1.037, 201.147 
9834, -2.432, 0.960, 1.129, 40.329,-15.600, 15.641, 0.015, 0.012, 1.037, 201.147 
9845, -2.432, 0.960, 1.129, 40.329,-15.600, 15.641, 0.015, 0.012, 1.037, 201.147 
9856, -2.432, 0.960, 1.129, 40.329,-15.600, 15.641, 0.015, 0.012, 1.037, 201.147 
9867, -2.432, 0.960, 1.129, 40.329,-15.600, 15.641, 0.015, 0.012, 1.037, 201.147 
9878, -2.432, 0.960, 1.129, 40.329,-15.600, 15.641, 0.015, 0.012, 1.037, 201.147 
9889, -2.432, 0.960, 1.129, 40.329,-15.600, 15.641, 0.015, 0.012, 1.037, 201.147 
9900, -2.432, 0.960, 1.129, 40.329,-15.600, 15.641, 0.015, 0.012, 1.037, 201.147 
9911, -2.432, 0.960, 1.129, 40.329,-15.600, 15.641, 0.015, 0.012, 1.037, 201.147 
9923, -2.432, 0.960, 1.129, 40.329,-15.600, 15.641, 0.015, 0.012, 1.037, 201.147 
9934, -2.445, 0.980, 1.169, 40.437,-15.673, 15.647, 0.015, 0.012, 1.038, 201.186 
9945, -2.445, 0.980, 1.169, 40.437,-15.673, 15.647, 0.015, 0.012, 1.038, 201.186 
9956, -2.445, 0.980, 1.169, 40.437,-15.673, 15.647, 0.015, 0.012, 1.038, 201.186 
9967, -2.445, 0.980, 1.169, 40.437,-15.673, 15.647, 0.015, 0.012, 1.038, 201.186 
9979, -2.445, 0.980, 1.169, 40.437,-15.673, 15.647, 0.015, 0.012, 1.038, 201.186 
9990, -2.445, 0.980, 1.169, 40.437,-15.673, 15.647, 0.015, 0.012, 1.038, 201.186 
10001, -2.445, 0.980, 1.169, 40.437,-15.673, 15.647, 0.015, 0.012, 1.038, 201.186 
10012, -2.445, 0.980, 1.169, 40.437,-15.673, 15.647, 0.015, 0.012, 1.038, 201.186 
10023, -2.445, 0.980, 1.169, 40.437,-15.673, 15.647, 0.015, 0.012, 1.038, 201.186 
10034, -2.445, 0.980, 1.169, 40.437,-15.673, 15.647, 0.015, 0.012, 1.038, 201.186 
10045, -2.490, 0.932, 1.185, 40.378,-15.586, 15.623, 0.015, 0.012, 1.038, 201.107 
10057, -2.490, 0.932, 1.185, 40.378,-15.586, 15.623, 0.015, 0.012, 1.038, 201.107 
10068, -2.490, 0.932, 1.185, 40.378,-15.586, 15.623, 0.015, 0.012, 1.038, 201.107 
10079, -2.490, 0.932, 1.185, 40.378,-15.586, 15.623, 0.015, 0.012, 1.038, 201.107 
10090, -2.490, 0.932, 1.185, 40.378,-15.586, 15.623, 0.015, 0.012, 1.038, 201.107 
10101, -2.490, 0.932, 1.185, 40.378,-15.586, 15.623, 0.015, 0.012, 1.038, 201.107 
10112, -2.490, 0.932, 1.185, 40.378,-15.586, 15.623, 0.015, 0.012, 1.038, 201.107 
10123, -2.490, 0.932, 1.185, 40.378,-15.586, 15.623, 0.015, 0.012, 1.038, 201.107 
10135, -2.490, 0.932, 1.185, 40.378,-15.586, 15.623, 0.015, 0.012, 1.038, 201.107 
10147, -2.490, 0.932, 1.185, 40.378,-15.586, 15.623, 0.015, 0.012, 1.038, 201.107 
10169, -2.506, 0.935, 1.142, 40.330,-15.516, 15.604, 0.015, 0.013, 1.038, 201.043 
10180, -2.506, 0.935, 1.142, 40.330,-15.516, 15.604, 0.015, 0.013, 1.038, 201.043 
10191, -2.506, 0.935, 1.142, 40.330,-15.516, 15.604, 0.015, 0.013, 1.038, 201.043 
10202, -2.506, 0.935, 1.142, 40.330,-15.516, 15.604, 0.015, 0.013, 1.038, 201.043 
10213, -2.506, 0.935, 1.142, 40.330,-15.516, 15.604, 0.015, 0.013, 1.038, 201.043 
10224, -2.506, 0.935, 1.142, 40.330,-15.516, 15.604, 0.015, 0.013, 1.038, 201.043 
10235, -2.506, 0.935, 1.142, 40.330,-15.516, 15.604, 0.015, 0.013, 1.038, 201.043 
10246, -2.506, 0.935, 1.142, 40.330,-15.516, 15.604, 0.015, 0.013, 1.038, 201.043 
10257, -2.506, 0.935, 1.142, 40.330,-15.516, 15.604, 0.015, 0.013, 1.038, 201.043 
10268, -2.506, 0.935, 1.142, 40.330,-15.516, 15.604, 0.015, 0.013, 1.038, 201.043 
10281, -2.506, 0.935, 1.142, 40.330,-15.516, 15.604, 0.015, 0.013, 1.038, 201.043 
10294, -2.460, 0.955, 1.181, 40.145,-15.723, 15.560, 0.015, 0.013, 1.036, 201.388 
10305, -2.460, 0.955, 1.181, 40.145,-15.723, 15.560, 0.015, 0.013, 1.036, 201.388 
10315, -2.460, 0.955, 1.181, 40.145,-15.723, 15.560, 0.015, 0.013, 1.036, 201.388 
10326, -2.460, 0.955, 1.181, 40.145,-15.723, 15.560, 0.015, 0.013, 1.036, 201.388 
10338, -2.460, 0.955, 1.181, 40.145,-15.723, 15.560, 0.015, 0.013, 1.036, 201.388 
10349, -2.460, 0.955, 1.181, 40.145,-15.723, 15.560, 0.015, 0.013, 1.036, 201.388 
imu9250 main loop terminated
