imu9250 monitor started
time, gx, gy, gz, ax, ay, az, mx, my, mz, comp, temp
2025,-2.104,0.727,0.123,0.006,0.010,1.014,35.851,-16.957,10.148,205.314,22.90921799525754
2126,-2.176,0.714,0.161,0.006,0.010,1.017,36.147,-16.954,10.127,205.128,22.984438522961955
2227,-2.225,0.706,0.088,0.006,0.010,1.021,36.115,-17.102,10.081,205.340,23.035030376281327
2328,-2.286,0.633,0.024,0.005,0.010,1.023,35.939,-17.130,10.134,205.485,23.04675015240434
2429,-2.268,0.667,0.047,0.006,0.010,1.026,36.128,-17.003,10.026,205.203,23.13280252405604
2530,-2.250,0.666,0.056,0.006,0.010,1.027,36.280,-16.901,9.940,204.979,23.134552439468273
2632,-2.267,0.658,0.051,0.007,0.010,1.027,36.401,-16.819,9.872,204.800,23.13595237179806
2733,-2.294,0.671,-0.002,0.006,0.010,1.027,36.438,-16.994,9.996,205.004,23.15624145535021
2834,-2.291,0.664,-0.035,0.006,0.011,1.029,36.467,-16.774,10.276,204.701,23.17247272219193
2935,-2.300,0.703,0.021,0.006,0.011,1.030,36.491,-16.778,10.080,204.692,23.223796011041948
3036,-2.307,0.696,0.015,0.006,0.011,1.031,36.480,-16.931,10.133,204.897,23.207347229057
3137,-2.233,0.653,0.094,0.007,0.010,1.032,36.411,-16.753,10.116,204.708,23.213357341157362
3238,-2.212,0.644,0.141,0.007,0.010,1.033,36.266,-16.761,10.252,204.805,23.189411724305167
3339,-2.234,0.654,0.111,0.007,0.010,1.034,36.150,-16.768,10.361,204.884,23.208593506200057
3441,-2.213,0.700,0.133,0.007,0.011,1.034,36.147,-16.923,10.597,205.087,23.233523500560132
3543,-2.175,0.690,0.172,0.008,0.011,1.033,36.147,-16.923,10.597,205.087,23.215129220671546
3644,-2.175,0.690,0.172,0.008,0.011,1.033,36.174,-17.077,10.457,205.270,23.215129220671546
3745,-2.184,0.683,0.156,0.008,0.011,1.032,36.167,-17.110,10.315,205.318,23.257921209825643
3846,-2.218,0.673,0.068,0.008,0.010,1.033,36.280,-17.077,10.381,205.206,23.253816525772276
3947,-2.210,0.706,0.117,0.008,0.011,1.032,36.131,-17.050,10.374,205.262,23.269701916217905
4048,-2.232,0.696,0.138,0.008,0.012,1.034,36.072,-17.089,10.488,205.348,23.263241090886087
4150,-2.242,0.702,0.130,0.008,0.012,1.036,35.965,-17.179,10.520,205.532,23.277241568308956
4251,-2.202,0.710,0.089,0.008,0.012,1.035,35.879,-17.252,10.545,205.680,23.27885738140309
4352,-2.233,0.676,0.077,0.008,0.012,1.036,35.960,-17.160,10.415,205.511,23.270565463034234
4453,-2.221,0.675,0.068,0.008,0.012,1.036,36.145,-17.027,10.251,205.224,23.244762790650828
4554,-2.252,0.656,0.015,0.008,0.011,1.036,35.993,-16.920,10.120,205.178,23.2241206527441
4655,-2.216,0.688,0.006,0.008,0.010,1.035,35.962,-16.865,10.345,205.125,23.245945217795366
4756,-2.174,0.688,0.078,0.007,0.010,1.034,35.727,-16.910,10.136,205.330,23.225066594459733
4858,-2.164,0.645,0.120,0.007,0.010,1.036,35.868,-16.797,10.178,205.094,23.22753283347955
4959,-2.180,0.638,0.133,0.007,0.010,1.036,36.012,-16.976,10.061,205.240,23.2295058246954
5060,-2.238,0.665,0.108,0.008,0.010,1.036,36.126,-17.119,9.968,205.355,23.231084217668084
5161,-2.299,0.699,0.085,0.007,0.010,1.036,36.068,-16.844,10.104,205.033,23.24193150089039
5263,-2.318,0.660,0.051,0.007,0.010,1.036,36.068,-16.844,10.104,205.033,23.221855620935752
5364,-2.318,0.660,0.051,0.007,0.010,1.036,36.321,-17.104,10.032,205.216,23.221855620935752
5465,-2.245,0.666,0.070,0.007,0.010,1.036,36.284,-17.012,10.155,205.119,23.244133192348688
5567,-2.240,0.651,0.109,0.007,0.010,1.037,36.284,-17.088,10.163,205.218,23.261955249479037
5668,-2.248,0.662,0.136,0.007,0.011,1.035,36.255,-16.999,10.260,205.121,23.237874619806668
5769,-2.229,0.671,0.147,0.007,0.011,1.035,36.291,-16.748,10.397,204.773,23.218610116068774
5870,-2.224,0.699,0.131,0.006,0.011,1.035,36.470,-16.877,10.297,204.833,23.2415367884551
5972,-2.211,0.705,0.184,0.006,0.012,1.035,36.613,-16.980,10.216,204.881,23.250293557520003
6073,-2.250,0.693,0.141,0.007,0.011,1.036,36.547,-16.943,10.212,204.872,23.286052679304408
6174,-2.256,0.673,0.127,0.006,0.010,1.036,36.585,-16.643,10.059,204.462,23.27632170135529
6275,-2.278,0.665,0.124,0.006,0.011,1.036,36.615,-16.703,9.997,204.522,23.306875194372637
6376,-2.268,0.712,0.124,0.007,0.011,1.035,36.579,-16.811,9.946,204.683,23.302564282254032
6478,-2.263,0.696,0.113,0.007,0.011,1.036,36.310,-16.717,9.786,204.722,23.28953098371499
6579,-2.317,0.664,0.112,0.008,0.011,1.035,36.485,-16.853,9.688,204.792,23.25035063835127
6680,-2.317,0.707,0.097,0.007,0.010,1.035,36.685,-16.781,9.970,204.581,23.266929206281098
6781,-2.303,0.669,0.136,0.008,0.011,1.036,36.845,-16.723,10.195,204.412,23.32811490484577
6883,-2.256,0.656,0.125,0.007,0.011,1.036,36.703,-16.467,10.105,204.164,23.290802344100054
6984,-2.256,0.656,0.125,0.007,0.011,1.036,36.703,-16.467,10.105,204.164,23.290802344100054
7085,-2.236,0.612,0.091,0.007,0.011,1.036,36.739,-16.353,10.003,203.994,23.318459708568447
7186,-2.206,0.604,0.080,0.007,0.011,1.037,36.679,-16.771,10.072,204.571,23.31183189361068
7287,-2.204,0.665,0.109,0.007,0.011,1.035,36.690,-16.745,10.307,204.532,23.306529641644467
7388,-2.184,0.657,0.120,0.007,0.011,1.035,36.879,-16.965,10.374,204.703,23.292703271227335
7490,-2.211,0.686,0.119,0.006,0.011,1.034,36.910,-17.200,10.309,204.986,23.300811312581953
7591,-2.257,0.716,0.086,0.006,0.011,1.034,36.935,-17.389,10.256,205.211,23.307297745665647
7692,-2.270,0.651,0.080,0.005,0.011,1.034,36.805,-17.270,10.244,205.137,23.302902323288443
7793,-2.274,0.623,0.116,0.006,0.011,1.034,36.731,-17.084,10.204,204.944,23.299385985386678
7894,-2.278,0.616,0.117,0.006,0.011,1.035,36.552,-16.996,10.293,204.938,23.286988346221104
7995,-2.280,0.642,0.115,0.006,0.011,1.034,36.529,-16.986,10.303,204.938,23.31540851026529
8097,-2.248,0.622,0.100,0.006,0.012,1.035,36.600,-17.007,10.342,204.923,23.299806366123995
8198,-2.290,0.638,0.095,0.006,0.012,1.034,36.567,-16.874,10.283,204.772,23.306493788499278
8299,-2.314,0.610,0.106,0.007,0.012,1.035,36.571,-16.918,10.205,204.826,23.273505451022864
8400,-2.286,0.614,0.061,0.007,0.012,1.035,36.573,-16.953,10.143,204.869,23.266283918730053
8502,-2.298,0.630,0.055,0.007,0.012,1.034,36.456,-16.981,10.154,204.976,23.260506692895806
8603,-2.285,0.613,0.038,0.007,0.012,1.034,36.482,-17.363,9.982,205.452,23.27505404991673
8704,-2.285,0.613,0.038,0.007,0.012,1.034,36.482,-17.363,9.982,205.452,23.27505404991673
8805,-2.242,0.617,0.019,0.007,0.012,1.032,36.592,-17.339,9.935,205.354,23.277107366689307
8906,-2.246,0.583,0.019,0.007,0.011,1.032,36.411,-17.410,9.747,205.555,23.249996313574886
9007,-2.246,0.529,0.024,0.007,0.011,1.031,36.356,-17.017,9.867,205.082,23.24747660877167
9108,-2.241,0.544,-0.016,0.006,0.011,1.032,36.252,-17.122,10.023,205.282,23.226291707240776
9210,-2.244,0.585,0.004,0.007,0.011,1.033,36.258,-16.996,9.997,205.115,23.266851199081025
9312,-2.262,0.642,0.032,0.006,0.010,1.033,36.264,-16.896,9.977,204.981,23.26096051717658
9413,-2.260,0.643,0.069,0.006,0.010,1.033,36.148,-17.115,10.021,205.336,23.29458624702967
9514,-2.258,0.659,0.059,0.006,0.010,1.032,36.176,-16.991,10.116,205.158,23.29273312437966
9615,-2.249,0.692,0.110,0.006,0.010,1.032,36.138,-17.011,10.132,205.208,23.348758039324615
9716,-2.262,0.677,0.094,0.006,0.009,1.033,36.197,-16.998,10.235,205.154,23.345655127059775
9817,-2.230,0.653,0.113,0.006,0.010,1.034,36.215,-16.717,10.227,204.778,23.30483452187126
9918,-2.242,0.672,0.144,0.007,0.010,1.032,36.319,-16.822,10.131,204.852,23.272178037720447
10020,-2.309,0.663,0.143,0.007,0.010,1.033,36.312,-16.636,10.024,204.615,23.284391125776445
10121,-2.286,0.662,0.139,0.008,0.010,1.035,36.307,-16.488,9.938,204.424,23.28457702737708
10222,-2.269,0.670,0.138,0.008,0.010,1.035,36.182,-16.549,10.110,204.578,23.294310317501747
10323,-2.272,0.682,0.120,0.008,0.010,1.034,35.903,-16.538,10.307,204.732,23.30209694960148
10425,-2.272,0.682,0.120,0.008,0.010,1.034,35.903,-16.538,10.307,204.732,23.30209694960148
10526,-2.237,0.727,0.084,0.008,0.011,1.036,36.099,-16.709,10.225,204.837,23.33707996181375
10627,-2.202,0.699,0.084,0.008,0.012,1.037,35.987,-16.816,10.189,205.045,23.336312665051082
10728,-2.175,0.741,0.094,0.007,0.012,1.035,36.046,-16.871,10.130,205.081,23.335698827640947
10829,-2.166,0.756,0.076,0.007,0.011,1.034,36.034,-16.915,10.023,205.147,23.354376895401163
10931,-2.163,0.782,0.031,0.007,0.011,1.035,36.024,-16.831,10.238,205.043,23.330981074232692
11032,-2.186,0.738,0.031,0.008,0.011,1.035,36.017,-16.763,10.409,204.959,23.312264417297918
11133,-2.199,0.743,0.030,0.007,0.011,1.032,36.040,-16.679,10.457,204.835,23.268537385217613
11234,-2.300,0.720,0.079,0.006,0.010,1.029,36.029,-16.702,10.345,204.871,23.23355575955337
11336,-2.320,0.645,0.049,0.007,0.009,1.031,36.081,-16.540,10.315,204.628,23.2726624409311
11437,-2.288,0.638,0.048,0.007,0.007,1.034,36.091,-16.441,10.261,204.491,23.275194079500803
11538,-2.285,0.644,0.049,0.007,0.007,1.035,36.190,-16.571,10.188,204.603,23.267634821512406
11639,-2.324,0.601,0.055,0.007,0.005,1.039,36.269,-16.496,10.130,204.457,23.28075655281001
11740,-2.284,0.644,0.065,0.008,0.005,1.042,36.332,-16.435,10.083,204.340,23.23374652478313
11842,-2.283,0.625,0.064,0.009,0.005,1.046,36.263,-16.327,10.165,204.239,23.253645915426585
11943,-2.274,0.689,0.032,0.008,0.005,1.047,36.387,-16.540,10.112,204.445,23.26956542794135
12044,-2.283,0.719,-0.010,0.008,0.007,1.049,36.577,-16.561,10.158,204.359,23.263131900264845
12145,-2.283,0.719,-0.010,0.008,0.007,1.049,36.577,-16.561,10.158,204.359,23.263131900264845
12246,-2.305,0.696,0.009,0.009,0.007,1.049,36.638,-16.607,10.106,204.384,23.277154215811958
12347,-2.253,0.680,0.083,0.008,0.007,1.047,36.598,-16.674,9.974,204.495,23.269202930561327
12448,-2.274,0.657,0.085,0.008,0.008,1.045,36.505,-16.728,10.048,204.619,23.262841902360826
12549,-2.266,0.672,0.105,0.007,0.007,1.044,36.671,-16.771,9.868,204.576,23.276922217488742
12651,-2.388,0.867,0.065,0.008,0.009,1.043,36.804,-16.806,9.724,204.543,23.28818646959108
12752,-2.266,0.695,0.103,0.010,0.014,1.039,36.610,-16.833,9.788,204.693,23.258859595896304
12853,-2.216,0.669,0.091,0.007,0.011,1.037,36.275,-16.975,9.900,205.077,23.264151803472966
12954,-1.046,-0.868,0.014,0.007,0.010,1.036,36.157,-16.819,10.139,204.946,23.29713927606678
13055,-1.185,-0.267,-8.775,0.007,0.011,1.036,36.273,-16.724,10.300,204.752,23.304360116453505
13157,-0.905,0.041,-18.736,0.008,0.012,1.036,36.245,-16.708,10.309,204.748,23.33889049529537
13258,-0.781,1.202,-34.086,0.019,0.017,1.041,35.564,-17.055,10.077,205.620,23.289838247615574
13359,-0.885,2.168,-43.962,0.015,0.010,1.035,34.179,-17.152,10.310,206.649,23.28893472484838
13460,-1.209,3.337,-55.329,0.008,0.006,1.037,33.071,-17.230,10.497,207.520,23.31696561316711
13561,0.075,2.029,-62.751,-0.008,0.002,1.034,31.494,-17.443,10.497,208.979,23.31063661728961
13662,-0.105,2.090,-62.343,-0.007,0.011,1.033,29.334,-17.433,10.317,210.723,23.295988851743452
13764,-0.023,1.861,-63.525,-0.002,0.019,1.033,27.006,-16.945,10.173,212.107,23.303439776994843
13865,-0.023,1.861,-63.525,-0.002,0.019,1.033,27.006,-16.945,10.173,212.107,23.303439776994843
13966,0.639,0.778,-59.735,0.008,0.019,1.036,24.663,-16.375,9.877,213.582,23.309400517195957
14067,-0.319,1.466,-62.286,0.005,0.026,1.033,22.519,-15.469,9.731,214.486,23.31416910935685
14168,-0.433,1.454,-56.869,0.003,0.025,1.033,20.684,-14.324,9.614,214.703,23.308399414241403
14269,-0.766,1.381,-47.767,-0.001,0.024,1.035,19.157,-13.409,9.461,214.990,23.34212193352569
14371,-0.836,1.512,-47.235,-0.002,0.018,1.032,17.934,-12.676,9.338,215.253,23.29242339819983
14472,-1.056,1.343,-37.814,-0.005,0.015,1.032,16.806,-11.820,9.210,215.120,23.31975655184827
14573,-1.323,1.216,-30.195,-0.007,0.012,1.033,15.784,-11.076,9.287,215.057,23.303284799390376
14674,-1.469,1.110,-24.125,-0.009,0.012,1.033,14.966,-10.420,9.349,214.846,23.30927653511238
14775,-1.506,1.070,-20.594,-0.012,0.015,1.034,14.042,-9.985,9.488,215.416,23.29490078600167
14876,-1.432,1.088,-19.274,-0.015,0.019,1.035,13.363,-9.458,9.600,215.289,23.32173846208974
14977,-1.600,1.023,-15.404,-0.015,0.016,1.034,12.969,-9.005,9.779,214.775,23.304870327583554
15079,-1.714,0.919,-12.355,-0.015,0.013,1.034,12.775,-8.644,9.922,214.084,23.300960388822766
15180,-1.661,0.824,-9.849,-0.015,0.012,1.033,12.619,-8.354,10.037,213.507,23.307417006658294
15281,-1.928,0.804,-7.803,-0.015,0.010,1.032,12.434,-8.363,9.829,213.924,23.31258230092672
15382,-2.005,0.838,-6.267,-0.014,0.008,1.032,12.346,-8.370,9.782,214.134,23.3071299674973
15483,-2.428,0.924,-4.929,-0.012,0.007,1.033,12.066,-8.165,9.955,214.086,23.302768100753763
15584,-2.428,0.924,-4.929,-0.012,0.007,1.033,12.066,-8.165,9.955,214.086,23.302768100753763
15686,-2.377,0.877,-3.939,-0.013,0.007,1.035,12.112,-8.211,9.703,214.136,23.299278607358936
15787,-2.334,0.831,-3.086,-0.012,0.006,1.033,11.939,-8.039,9.772,213.953,23.30607158148723
15888,-2.288,0.778,-2.449,-0.013,0.006,1.034,11.770,-7.870,9.737,213.769,23.301921391945708
15989,-2.217,0.744,-1.941,-0.013,0.005,1.034,11.635,-7.736,9.709,213.618,23.260262964935844
16090,-2.152,0.720,-1.609,-0.013,0.004,1.037,11.707,-7.748,9.626,213.497,23.322781911769564
16191,-2.188,0.746,-1.275,-0.015,0.004,1.039,11.435,-7.608,9.890,213.636,23.28653594963909
16292,-2.245,0.763,-1.028,-0.015,0.005,1.040,11.487,-7.286,9.771,212.385,23.31504659299968
16394,-2.214,0.790,-0.813,-0.015,0.004,1.039,11.559,-7.478,9.586,212.901,23.299516832311504
16495,-2.182,0.786,-0.652,-0.014,0.004,1.038,11.256,-7.392,9.618,213.292,23.287093023760967
16596,-2.167,0.785,-0.474,-0.014,0.005,1.036,11.074,-7.323,9.764,213.475,23.277153976920538
16697,-2.168,0.709,-0.416,-0.014,0.005,1.037,11.138,-7.238,9.790,213.016,23.269202739448193
16798,-2.206,0.692,-0.307,-0.015,0.004,1.035,11.190,-7.170,9.811,212.649,23.243672611781996
16899,-2.177,0.729,-0.278,-0.015,0.004,1.037,11.291,-7.355,10.008,213.081,23.24241764733736
17001,-2.192,0.721,-0.199,-0.016,0.004,1.035,11.342,-7.293,9.776,212.744,23.279751951158293
17102,-2.225,0.693,-0.167,-0.016,0.004,1.034,11.442,-7.424,9.890,212.976,23.290450256526718
17203,-2.172,0.681,-0.163,-0.015,0.004,1.033,11.523,-7.589,9.801,213.367,23.299008900821455
17304,-2.172,0.681,-0.163,-0.015,0.004,1.033,11.523,-7.589,9.801,213.367,23.299008900821455
17405,-2.214,0.700,-0.083,-0.015,0.004,1.033,11.168,-7.540,9.670,214.027,23.267517540880604
17506,-2.220,0.702,0.006,-0.014,0.005,1.032,11.033,-7.472,9.895,214.106,23.261493590616247
17608,-2.209,0.740,-0.089,-0.015,0.005,1.032,11.136,-7.627,9.865,214.407,23.23750529271644
17709,-2.204,0.775,-0.054,-0.016,0.004,1.031,11.218,-7.751,9.842,214.642,23.247068360929074
17810,-2.228,0.745,0.012,-0.016,0.004,1.030,11.193,-7.640,10.092,214.316,23.264303384343343
17911,-2.253,0.706,0.011,-0.015,0.004,1.032,11.114,-7.611,9.933,214.406,23.230168558853954
18012,-2.246,0.746,-0.025,-0.016,0.004,1.032,10.930,-7.648,9.926,214.983,23.269952680371567
18113,-2.197,0.771,0.029,-0.015,0.003,1.033,11.023,-7.618,10.040,214.649,23.244272564520692
18215,-2.175,0.750,0.035,-0.016,0.003,1.033,11.158,-7.594,9.951,214.239,23.262066747216636
18316,-2.174,0.726,0.071,-0.015,0.004,1.033,11.235,-7.545,9.910,213.882,23.276302093373392
18417,-2.220,0.706,0.060,-0.015,0.005,1.034,11.297,-7.505,9.817,213.597,23.30685950798712
18519,-2.261,0.661,0.048,-0.014,0.004,1.034,11.347,-7.473,9.743,213.370,23.30255173314562
18620,-2.181,0.620,0.047,-0.015,0.004,1.035,11.626,-7.568,9.624,213.062,23.29910551327242
18721,-2.221,0.626,0.039,-0.014,0.004,1.034,11.640,-7.734,9.798,213.600,23.30593310621802
18822,-2.238,0.650,0.033,-0.015,0.004,1.034,11.621,-7.716,9.908,213.584,23.3113951805745
18923,-2.234,0.670,0.020,-0.015,0.004,1.035,11.756,-7.613,10.025,212.925,23.315764840059682
19026,-2.266,0.667,0.033,-0.015,0.004,1.034,11.756,-7.613,10.025,212.925,23.300091429959508
19127,-2.266,0.667,0.033,-0.015,0.004,1.034,11.564,-7.409,9.640,212.650,23.300091429959508
19228,-2.251,0.668,0.007,-0.015,0.004,1.035,11.560,-7.397,9.721,212.614,23.325890977256012
19329,-2.289,0.704,0.034,-0.014,0.003,1.034,11.557,-7.387,9.786,212.585,23.317776908560734
19431,-2.307,0.734,0.047,-0.014,0.004,1.035,11.465,-7.349,9.988,212.660,23.272947378227865
19532,-2.290,0.741,0.055,-0.015,0.004,1.033,11.511,-7.319,9.789,212.448,23.304175735870697
19633,-2.342,0.723,0.108,-0.014,0.003,1.034,11.638,-7.444,9.841,212.606,23.29082014660832
19734,-2.288,0.705,0.100,-0.014,0.003,1.033,11.529,-7.515,10.032,213.096,23.280135675198416
19835,-2.287,0.687,0.089,-0.014,0.004,1.032,11.473,-7.421,9.975,212.898,23.290757235758814
19936,-2.329,0.718,0.035,-0.014,0.004,1.032,11.427,-7.406,9.869,212.949,23.299254484207136
20037,-2.330,0.698,-0.007,-0.014,0.004,1.033,11.391,-7.514,9.664,213.413,23.28688314527747
20138,-2.314,0.725,0.029,-0.014,0.004,1.033,11.362,-7.601,9.501,213.782,23.257816936445415
20240,-2.274,0.729,0.033,-0.014,0.004,1.033,11.428,-7.520,9.580,213.346,23.272902244756416
20341,-2.248,0.753,0.092,-0.014,0.003,1.033,11.482,-7.396,9.703,212.786,23.284970491405215
20442,-2.226,0.761,0.133,-0.014,0.004,1.033,11.315,-7.386,9.712,213.135,23.294625088724256
20543,-2.307,0.772,0.089,-0.014,0.004,1.032,11.121,-7.378,9.479,213.562,23.254425922358685
20644,-2.270,0.744,0.107,-0.014,0.004,1.031,11.416,-7.222,9.502,212.319,23.27018943348703
20746,-2.242,0.730,0.104,-0.014,0.005,1.030,11.416,-7.222,9.502,212.319,23.340307655454673
20847,-2.242,0.730,0.104,-0.014,0.005,1.030,11.442,-7.247,9.431,212.350,23.340307655454673
20948,-2.249,0.716,0.080,-0.014,0.005,1.031,11.462,-7.447,9.494,213.011,23.358063957652142
21049,-2.180,0.688,0.036,-0.015,0.005,1.031,11.479,-7.607,9.544,213.532,23.333930724033475
21150,-2.185,0.674,0.079,-0.015,0.006,1.031,11.192,-7.615,9.585,214.230,23.314624137138544
21251,-2.144,0.716,-0.005,-0.016,0.005,1.032,11.143,-7.681,9.737,214.580,23.299178867622597
21352,-2.175,0.709,-0.001,-0.015,0.005,1.033,11.343,-7.434,9.739,213.241,23.296407220854
21454,-2.231,0.719,0.034,-0.015,0.005,1.034,11.474,-7.327,9.710,212.562,23.26543619690664
21555,-2.260,0.753,0.035,-0.015,0.005,1.034,11.668,-7.151,9.597,211.503,23.240659377748752
21656,-2.226,0.724,0.057,-0.015,0.004,1.034,11.793,-7.280,9.657,211.688,23.21125335357828
21757,-2.194,0.741,0.087,-0.015,0.004,1.035,11.864,-7.414,9.795,212.001,23.226066809618548
21858,-2.196,0.686,0.132,-0.015,0.003,1.035,11.920,-7.520,9.905,212.247,23.199579299074117
21960,-2.215,0.643,0.162,-0.015,0.003,1.034,11.755,-7.456,9.963,212.385,23.216727566015216
22061,-2.220,0.643,0.108,-0.015,0.003,1.034,11.713,-7.254,10.040,211.770,23.220861610723937
22162,-2.193,0.665,0.148,-0.015,0.003,1.033,11.710,-7.363,10.071,212.160,23.24333798417923
22263,-2.230,0.682,0.133,-0.014,0.003,1.033,11.797,-7.479,10.186,212.376,23.251734514099308
22364,-2.219,0.716,0.101,-0.015,0.003,1.034,11.716,-7.303,10.068,211.936,23.26803630687953
22466,-2.219,0.703,0.070,-0.014,0.004,1.035,11.716,-7.303,10.068,211.936,23.242739465727063
22567,-2.219,0.703,0.070,-0.014,0.004,1.035,11.712,-7.222,10.213,211.658,23.242739465727063
22668,-2.210,0.718,0.031,-0.014,0.003,1.035,11.439,-7.307,10.180,212.569,23.26084026818173
22770,-2.269,0.663,0.050,-0.015,0.003,1.033,11.220,-7.375,10.153,213.316,23.29449004783379
22871,-2.242,0.639,0.075,-0.014,0.003,1.033,11.105,-7.369,10.012,213.567,23.26390245849047
22972,-2.230,0.659,0.043,-0.014,0.004,1.034,11.103,-6.975,9.929,212.136,23.27777066239246
23073,-2.227,0.706,0.036,-0.014,0.004,1.035,10.952,-7.109,9.892,212.989,23.26969608782573
23175,-2.224,0.688,0.041,-0.015,0.004,1.034,10.921,-7.427,9.773,214.218,23.23448272163986
23276,-2.225,0.641,0.060,-0.015,0.004,1.033,10.926,-7.231,9.768,213.498,23.254234872911972
23377,-2.236,0.674,0.079,-0.015,0.004,1.033,11.259,-7.164,9.613,212.468,23.289205731617983
23478,-2.248,0.719,0.048,-0.014,0.004,1.033,11.527,-7.111,9.490,211.671,23.250090436673666
23579,-2.198,0.740,-0.014,-0.014,0.005,1.033,11.470,-7.278,9.601,212.395,23.247551907250696
23681,-2.212,0.719,-0.000,-0.015,0.004,1.032,11.545,-7.472,9.690,212.910,23.25510565255648
23782,-2.192,0.711,0.020,-0.014,0.004,1.031,11.575,-7.297,9.611,212.227,23.251564079956946
23883,-2.202,0.697,0.034,-0.014,0.004,1.029,11.539,-7.277,9.668,212.236,23.24873082187732
23984,-2.192,0.718,0.038,-0.015,0.004,1.030,11.540,-7.411,9.504,212.707,23.26563335310194
24085,-2.218,0.660,0.061,-0.015,0.004,1.030,11.541,-7.638,9.912,213.496,23.279155378081633
24186,-2.218,0.660,0.061,-0.015,0.004,1.030,11.541,-7.638,9.912,213.496,23.279155378081633
24288,-2.214,0.683,0.078,-0.015,0.004,1.030,11.692,-7.730,9.909,213.469,23.251634722688745
24389,-2.252,0.681,0.050,-0.014,0.004,1.030,11.813,-7.803,9.906,213.448,23.26795647375108
24490,-2.270,0.742,0.051,-0.015,0.004,1.030,11.579,-7.832,9.934,214.073,23.28101387460095
24591,-2.269,0.735,0.091,-0.015,0.004,1.030,11.423,-7.885,9.747,214.617,23.291459795280844
24693,-2.290,0.767,0.067,-0.015,0.005,1.032,11.537,-7.867,9.777,214.290,23.261478256448115
24794,-2.261,0.723,0.082,-0.014,0.006,1.032,11.629,-7.733,9.740,213.624,23.275831300758576
24895,-2.213,0.734,0.124,-0.014,0.006,1.032,11.642,-7.686,9.951,213.432,23.268144598518624
24996,-2.205,0.737,0.084,-0.014,0.005,1.033,11.413,-7.528,9.820,213.410,23.28116437441498
25097,-2.181,0.704,0.104,-0.014,0.005,1.034,11.499,-7.552,9.985,213.294,23.28199562628791
25198,-2.215,0.693,0.116,-0.014,0.005,1.033,11.568,-7.571,10.118,213.203,23.320998903162895
25300,-2.191,0.687,0.089,-0.014,0.005,1.032,11.564,-7.586,10.163,213.266,23.304278680442078
25401,-2.174,0.684,0.150,-0.014,0.005,1.033,11.650,-7.568,9.930,213.009,23.290902502265425
25502,-2.174,0.684,0.183,-0.014,0.005,1.034,11.449,-7.644,9.953,213.729,23.251447853191618
25603,-2.133,0.661,0.181,-0.014,0.005,1.033,11.498,-7.794,9.942,214.132,23.2869761158417
25704,-2.176,0.635,0.169,-0.015,0.005,1.034,11.778,-7.795,9.992,213.498,23.315398725961764
25805,-2.159,0.638,0.204,-0.015,0.005,1.035,11.851,-7.825,9.763,213.437,23.299798538681173
25906,-2.159,0.638,0.204,-0.015,0.005,1.035,11.851,-7.825,9.763,213.437,23.299798538681173
26008,-2.184,0.652,0.237,-0.014,0.006,1.035,11.940,-7.700,9.790,212.817,23.30648752654502
26109,-2.202,0.671,0.186,-0.014,0.006,1.033,12.011,-7.599,9.811,212.321,23.292669579147777
26210,-2.231,0.676,0.183,-0.014,0.005,1.034,11.798,-7.549,9.978,212.613,23.281615221229984
26311,-2.217,0.669,0.206,-0.014,0.004,1.035,11.687,-7.448,10.052,212.510,23.29194087258407
26412,-2.221,0.662,0.210,-0.014,0.004,1.035,11.599,-7.428,9.930,212.636,23.30020139366734
26514,-2.256,0.664,0.197,-0.015,0.004,1.034,11.348,-7.412,9.894,213.150,23.306809810533956
26615,-2.268,0.645,0.173,-0.015,0.004,1.036,11.538,-7.369,9.954,212.566,23.31209654402725
26716,-2.295,0.629,0.183,-0.015,0.004,1.037,11.629,-7.514,10.002,212.870,23.277987655445237
26817,-2.299,0.658,0.151,-0.015,0.004,1.037,11.492,-7.781,9.831,214.100,23.308207957644594
26918,-2.292,0.628,0.169,-0.015,0.004,1.035,11.383,-7.994,9.694,215.079,23.303630492871598
27019,-2.264,0.654,0.085,-0.015,0.005,1.035,11.505,-7.775,9.615,214.048,23.299968521053202
27121,-2.278,0.630,0.094,-0.015,0.004,1.034,11.543,-7.899,9.671,214.383,23.325792650130968
27222,-2.265,0.579,0.113,-0.014,0.004,1.034,11.514,-7.579,9.776,213.354,23.32728281570486
27323,-2.259,0.594,0.095,-0.015,0.004,1.034,11.430,-7.502,9.800,213.280,23.328474948163972
27425,-2.210,0.594,0.032,-0.014,0.004,1.035,11.423,-7.681,9.639,213.918,23.3198440852871
27526,-2.200,0.640,0.076,-0.014,0.005,1.037,11.208,-7.614,9.780,214.192,23.322523963829763
27627,-2.200,0.640,0.076,-0.014,0.005,1.037,11.208,-7.614,9.780,214.192,23.322523963829763
27728,-2.274,0.663,0.042,-0.014,0.005,1.036,11.035,-7.561,9.894,214.417,23.30549872897557
27829,-2.241,0.622,0.049,-0.015,0.005,1.035,11.287,-7.608,9.654,213.982,23.29187854109222
27931,-2.261,0.606,0.076,-0.015,0.005,1.035,11.219,-7.616,9.852,214.170,23.2905669596297
28032,-2.256,0.621,0.033,-0.015,0.004,1.035,11.464,-7.502,9.831,213.201,23.299102263303844
28133,-2.298,0.573,0.016,-0.014,0.004,1.032,11.330,-7.621,9.904,213.925,23.267592230866516
28234,-2.277,0.602,0.063,-0.014,0.004,1.033,11.313,-7.746,9.932,214.399,23.232799636072492
28335,-2.316,0.651,0.022,-0.014,0.004,1.034,11.180,-7.726,9.835,214.648,23.2720575421464
28436,-2.283,0.637,0.029,-0.014,0.004,1.034,11.133,-7.950,9.937,215.531,23.284294729317203
28537,-2.288,0.607,0.042,-0.015,0.004,1.035,11.096,-8.130,10.019,216.230,23.313253616742166
28639,-2.259,0.562,0.114,-0.014,0.004,1.034,11.185,-8.213,9.844,216.288,23.298082451305497
28740,-2.239,0.608,0.116,-0.015,0.004,1.035,11.167,-7.770,9.975,214.829,23.295530087800323
28841,-2.197,0.622,0.096,-0.015,0.005,1.034,11.243,-7.865,9.929,214.975,23.331826472372825
28942,-2.193,0.628,0.089,-0.015,0.005,1.035,11.124,-7.822,9.772,215.113,23.312940735810024
29044,-2.206,0.662,0.187,-0.015,0.005,1.034,11.028,-7.667,9.647,214.807,23.307416715403942
29145,-2.186,0.690,0.168,-0.015,0.004,1.035,11.131,-7.663,9.667,214.543,23.302997499079076
29246,-2.202,0.665,0.144,-0.015,0.004,1.035,11.064,-7.450,9.773,213.953,23.309046694863344
29347,-2.202,0.665,0.144,-0.015,0.004,1.035,11.064,-7.450,9.773,213.953,23.309046694863344
imu9250 main loop terminated
