imu9250 monitor started
gx, gy, gz, ax, ay, az, mx, my, mz, comp, temp
0.000,0.000,0.000,0.000,0.000,0.000,0.000,0.000,0.000,90.000,0
0.000,0.000,0.000,0.000,0.000,0.000,0.000,0.000,0.000,90.000,0
-0.453,0.171,0.023,0.000,-0.002,0.207,9.086,1.889,1.469,168.254,4.628310420223441
-0.785,0.308,0.017,0.001,-0.004,0.372,16.475,3.221,2.585,168.939,8.292620481025548
-1.075,0.345,0.026,0.001,-0.006,0.503,22.386,4.286,3.537,169.162,11.2815759427322
-1.252,0.403,0.056,0.001,-0.007,0.609,27.205,5.168,4.569,169.244,13.6535711744092
-1.473,0.446,0.048,0.002,-0.008,0.695,30.971,5.964,5.605,169.101,15.608674772815766
-1.571,0.500,0.091,0.002,-0.009,0.762,33.923,6.540,6.193,169.087,17.153588513852696
-1.708,0.487,0.090,0.002,-0.009,0.819,36.344,6.881,6.964,169.279,18.37035036899392
-1.815,0.515,0.157,0.002,-0.010,0.861,38.282,7.155,7.580,169.414,19.353344421951057
-1.875,0.546,0.205,0.003,-0.011,0.895,40.012,7.433,7.713,169.476,20.13015509547261
-1.953,0.530,0.129,0.003,-0.010,0.923,41.096,7.596,7.940,169.528,20.799526478510654
-2.005,0.624,0.105,0.003,-0.011,0.947,42.233,7.816,8.151,169.515,21.306269878408607
-2.054,0.672,0.091,0.004,-0.011,0.965,43.082,7.932,8.320,169.568,21.71166459832697
-2.107,0.720,0.070,0.003,-0.011,0.979,43.822,7.905,8.455,169.775,22.03598037426166
-2.133,0.709,0.091,0.002,-0.011,0.992,44.264,8.093,8.474,169.638,22.247510150788607
-2.188,0.729,0.047,0.003,-0.011,0.999,44.497,8.184,8.248,169.579,22.464656816230967
-2.188,0.729,0.047,0.003,-0.011,0.999,44.497,8.184,8.248,169.579,22.464656816230967
-2.187,0.685,0.074,0.003,-0.011,1.006,44.684,8.256,8.068,169.531,22.628789579740697
-2.183,0.702,0.090,0.003,-0.012,1.011,45.044,8.284,7.954,169.579,22.76968035939264
-2.166,0.716,0.051,0.002,-0.012,1.015,45.211,8.187,8.042,169.736,22.872808414270036
-2.166,0.704,0.071,0.003,-0.012,1.019,45.225,8.529,7.933,169.320,22.94572628932779
-2.218,0.695,0.077,0.003,-0.012,1.023,45.296,8.742,8.026,169.076,23.042398864750638
-2.202,0.699,0.064,0.002,-0.012,1.024,45.563,8.703,8.130,169.186,23.06222951202395
-2.155,0.665,0.080,0.002,-0.013,1.026,45.657,8.552,8.333,169.391,23.116432305219245
-2.164,0.709,0.043,0.003,-0.013,1.027,45.642,8.221,8.406,169.790,23.178963677463802
-2.135,0.719,0.016,0.003,-0.012,1.029,45.630,7.956,8.464,170.109,23.209819637571126
-2.139,0.693,-0.022,0.003,-0.012,1.030,45.620,7.864,8.391,170.219,23.224919836812823
-2.185,0.675,-0.051,0.003,-0.012,1.030,45.702,8.121,8.422,169.924,23.2082462896737
-2.227,0.645,-0.041,0.004,-0.012,1.029,45.798,8.056,8.537,170.024,23.223661158494885
-2.235,0.620,0.016,0.004,-0.011,1.030,45.935,8.064,8.509,170.043,23.2935004666168
-2.217,0.606,-0.004,0.003,-0.012,1.031,46.014,8.041,8.516,170.088,23.320618206581845
-2.193,0.590,-0.008,0.004,-0.012,1.033,46.047,8.292,8.612,169.792,23.3135586920214
-2.180,0.654,0.030,0.003,-0.012,1.032,46.074,8.493,8.689,169.556,23.29832651152888
-2.180,0.654,0.030,0.003,-0.012,1.032,46.074,8.493,8.689,169.556,23.29832651152888
-2.199,0.659,0.061,0.003,-0.012,1.031,46.096,8.653,8.751,169.368,23.33406361135567
-2.186,0.673,0.029,0.003,-0.012,1.030,46.083,8.692,8.590,169.319,23.3147304469963
-2.196,0.679,0.121,0.003,-0.011,1.030,45.982,8.813,8.551,169.150,23.318433053197122
-2.241,0.713,0.066,0.004,-0.011,1.032,46.052,8.640,8.310,169.375,23.30222600046946
-2.198,0.724,0.090,0.004,-0.010,1.033,46.018,8.531,8.268,169.497,23.260506651754845
-2.201,0.737,0.072,0.004,-0.011,1.033,45.961,8.594,8.203,169.409,23.2654694481598
-2.211,0.740,0.010,0.004,-0.011,1.034,45.975,8.645,8.392,169.351,23.259855116439603
-2.207,0.786,0.039,0.004,-0.012,1.034,45.986,8.685,8.543,169.305,23.274532788751763
-2.217,0.772,0.043,0.004,-0.011,1.034,46.025,8.867,8.574,169.095,23.276690357757335
-2.209,0.751,0.062,0.003,-0.011,1.034,45.966,8.803,8.688,169.159,23.307170119494273
-2.258,0.765,0.042,0.004,-0.011,1.034,46.099,8.752,8.480,169.251,23.331553928883825
-2.243,0.725,0.082,0.003,-0.011,1.034,45.996,8.861,8.643,169.096,23.351060976395466
-2.202,0.701,0.043,0.003,-0.010,1.033,46.213,8.828,8.774,169.185,23.366666614404778
-2.238,0.701,0.076,0.003,-0.010,1.033,46.176,8.532,8.848,169.532,23.359981987123906
-2.234,0.657,0.079,0.002,-0.010,1.034,46.177,8.445,8.818,169.637,23.373803422987528
-2.210,0.674,0.039,0.002,-0.010,1.034,46.177,8.445,8.818,169.637,23.365691433990104
-2.210,0.674,0.039,0.002,-0.010,1.034,46.178,8.375,8.794,169.720,23.365691433990104
-2.223,0.653,0.048,0.002,-0.011,1.034,46.209,8.349,8.744,169.758,23.31127899857136
-2.192,0.712,0.063,0.002,-0.011,1.033,46.173,8.329,8.765,169.775,23.296502756768852
-2.220,0.688,0.079,0.002,-0.011,1.032,46.265,8.492,8.661,169.599,23.26551262563852
-2.185,0.694,0.080,0.002,-0.011,1.032,46.068,8.653,8.548,169.362,23.2790587961109
-2.169,0.680,0.067,0.003,-0.012,1.033,46.181,8.572,8.608,169.485,23.309064870177124
-2.167,0.723,0.104,0.003,-0.012,1.033,46.181,8.597,8.626,169.455,23.333069729430104
-2.184,0.743,0.073,0.003,-0.012,1.033,46.001,8.797,8.640,169.174,23.323519910300007
-2.173,0.733,0.041,0.003,-0.012,1.033,45.857,8.957,8.651,168.948,23.277541779619284
-2.184,0.735,0.053,0.004,-0.012,1.033,45.892,8.875,8.690,169.055,23.26951298160719
-2.138,0.656,0.076,0.004,-0.012,1.033,45.830,8.659,8.511,169.301,23.301428218574156
-2.154,0.594,0.120,0.003,-0.011,1.033,45.660,8.786,8.548,169.108,23.28862213277109
-2.154,0.605,0.095,0.003,-0.011,1.031,45.674,8.559,8.608,169.387,23.287961832972794
-2.127,0.595,0.096,0.002,-0.011,1.032,45.866,8.496,8.596,169.506,23.28743359313416
-2.147,0.597,0.096,0.002,-0.010,1.033,45.839,8.506,8.646,169.487,23.258257294730768
-2.186,0.622,0.106,0.002,-0.011,1.032,45.817,8.754,8.566,169.183,23.25408539369638
-2.186,0.622,0.106,0.002,-0.011,1.032,45.817,8.754,8.566,169.183,23.25408539369638
-2.190,0.655,0.085,0.002,-0.011,1.031,45.800,8.953,8.502,168.940,23.250747872868864
-2.176,0.683,0.063,0.002,-0.012,1.032,45.906,8.931,8.451,168.990,23.286416131583497
-2.179,0.668,0.040,0.002,-0.012,1.031,45.901,8.764,8.500,169.190,23.247858756646075
-2.160,0.673,0.027,0.002,-0.012,1.032,46.047,8.781,8.449,169.204,23.264935700916944
-2.169,0.672,0.055,0.002,-0.011,1.033,45.984,8.374,8.469,169.679,23.278597256333637
-2.158,0.656,0.026,0.001,-0.012,1.033,45.994,8.409,8.664,169.640,23.289526500666994
-2.140,0.681,0.096,0.002,-0.013,1.033,45.941,8.496,8.821,169.522,23.28868532728952
-2.162,0.696,0.078,0.002,-0.012,1.033,45.869,8.356,8.616,169.675,23.278427819743378
-2.158,0.672,0.070,0.002,-0.012,1.034,45.812,8.244,8.452,169.798,23.270221813706463
-2.136,0.721,0.064,0.003,-0.012,1.034,45.616,8.545,8.531,169.390,23.282826146565252
-2.119,0.711,0.100,0.003,-0.011,1.034,45.579,8.665,8.294,169.236,23.292909612852288
-2.124,0.732,0.106,0.003,-0.011,1.034,45.519,8.731,8.195,169.142,23.329730092414398
-2.163,0.728,0.112,0.004,-0.011,1.035,45.652,8.844,8.475,169.036,23.330432769531605
-2.165,0.750,0.149,0.004,-0.011,1.034,45.668,8.545,8.549,169.402,23.28307206700456
-2.199,0.789,0.156,0.003,-0.012,1.034,45.770,8.455,8.579,169.534,23.27393721151541
-2.188,0.781,0.111,0.003,-0.012,1.034,45.770,8.455,8.579,169.534,23.28579846481241
-2.188,0.781,0.111,0.003,-0.012,1.034,45.853,8.383,8.602,169.639,23.28579846481241
-2.175,0.770,0.071,0.003,-0.011,1.035,45.828,8.596,8.711,169.376,23.256949192073368
-2.193,0.759,0.078,0.003,-0.012,1.035,45.869,8.646,8.678,169.325,23.262623480414618
-2.198,0.728,0.035,0.003,-0.011,1.036,45.691,8.476,8.562,169.490,23.267162911087617
-2.162,0.752,0.063,0.003,-0.011,1.035,45.819,8.550,8.439,169.430,23.242040749093533
-2.157,0.740,0.053,0.002,-0.011,1.036,45.832,8.520,8.610,169.470,23.25069672603075
-2.149,0.696,0.035,0.003,-0.011,1.035,45.902,8.615,8.508,169.370,23.21928323220388
-2.157,0.708,0.014,0.003,-0.011,1.036,45.958,8.691,8.545,169.291,23.261244419051508
-2.169,0.699,0.015,0.002,-0.012,1.035,46.002,8.752,8.576,169.228,23.26605966199713
-2.203,0.649,0.025,0.002,-0.012,1.035,45.918,8.801,8.660,169.150,23.241158149821143
-2.196,0.663,0.052,0.002,-0.011,1.036,45.881,8.930,8.697,168.986,23.18289866470371
-2.212,0.640,0.080,0.001,-0.011,1.035,45.941,8.763,8.757,169.200,23.19379848967473
-2.225,0.668,0.072,0.002,-0.012,1.036,45.899,8.840,8.535,169.099,23.22168748733987
-2.298,0.708,0.050,0.002,-0.012,1.037,45.955,8.871,8.747,169.074,23.23441411662782
-2.156,0.673,0.047,0.000,-0.013,1.032,46.001,8.836,8.617,169.126,23.23501085121402
-2.167,0.674,0.078,-0.000,-0.012,1.029,45.947,8.658,8.723,169.328,23.2546573765713
-2.182,0.691,0.134,0.001,-0.011,1.027,45.947,8.658,8.723,169.328,23.2512054591688
-2.182,0.691,0.134,0.001,-0.011,1.027,45.904,8.516,8.808,169.490,23.2512054591688
-2.220,0.704,0.118,0.000,-0.011,1.026,45.779,8.792,8.725,169.129,23.248443925246804
-2.245,0.748,0.140,0.002,-0.010,1.027,45.890,8.743,8.690,169.213,23.265403835797525
-2.243,0.844,0.173,-0.001,-0.011,1.029,46.098,8.884,8.781,169.092,23.269387195393943
-2.293,0.841,0.186,-0.004,-0.012,1.030,45.845,8.576,8.794,169.404,23.243820176538595
-2.237,0.795,0.123,-0.005,-0.012,1.031,45.972,8.600,8.834,169.404,23.28087397451928
-2.515,0.912,-0.210,0.005,0.030,1.060,45.924,8.650,8.717,169.334,23.253009599838865
-2.285,0.837,-0.215,0.002,-0.007,1.049,45.885,8.689,8.623,169.277,23.23071810009453
-2.087,0.913,-3.619,0.001,-0.011,1.044,45.974,8.960,8.488,168.971,23.24163860683155
-1.473,1.262,-15.863,-0.003,-0.018,1.042,46.046,8.758,8.439,169.231,23.212036736844517
-1.537,1.820,-35.436,0.008,-0.002,1.038,46.163,8.236,8.581,169.885,23.26503179160818
-0.288,2.409,-46.591,0.013,-0.001,1.031,46.227,6.828,8.664,171.597,23.278674128886628
-0.525,2.048,-55.366,0.018,-0.003,1.023,46.307,5.073,9.060,173.748,23.289587998709386
-1.886,0.859,-64.430,0.015,-0.017,1.028,46.072,3.129,9.197,176.115,23.298319094567592
-1.515,1.491,-70.905,0.015,-0.007,1.037,45.764,0.614,9.307,179.232,23.295719402409997
-1.639,1.480,-72.124,0.003,0.003,1.036,45.518,-1.398,9.395,181.760,23.255301373307276
-1.530,1.777,-73.784,0.003,0.009,1.037,44.931,-3.278,9.555,184.172,23.290058931934226
-1.530,1.777,-73.784,0.003,0.009,1.037,44.931,-3.278,9.555,184.172,23.290058931934226
-2.149,2.742,-68.869,0.010,0.013,1.030,44.281,-5.261,9.563,186.776,23.317864978835786
-2.055,3.091,-66.177,-0.005,0.019,1.033,43.432,-7.298,9.720,189.538,23.30177154098039
-2.048,2.784,-55.146,0.002,0.009,1.033,42.272,-9.227,9.845,192.313,23.308065928384394
-1.704,2.439,-50.530,0.007,-0.008,1.034,40.955,-10.740,9.855,194.694,23.341855144840082
-2.320,2.737,-40.398,0.020,0.006,1.036,40.231,-11.981,10.013,196.583,23.368886518004633
-2.279,2.310,-32.279,0.015,0.006,1.036,39.802,-13.183,10.110,198.326,23.361757910003792
-2.278,1.986,-25.784,0.013,0.006,1.036,39.458,-14.145,10.187,199.722,23.35605502360312
-2.486,1.993,-20.497,0.010,0.006,1.035,38.584,-14.615,10.189,200.746,23.313154439105936
-2.457,1.765,-16.347,0.005,0.004,1.034,38.094,-14.840,10.160,201.285,23.27883397150819
-2.156,1.218,-13.053,0.004,0.004,1.034,37.852,-15.111,10.047,201.762,23.270546735118312
-1.766,0.451,-10.414,0.007,0.007,1.033,37.509,-15.298,10.167,202.187,23.26391694600641
-1.918,0.533,-8.334,0.008,0.008,1.033,37.234,-15.687,9.963,202.846,23.268197683561052
-2.001,0.556,-6.731,0.008,0.008,1.033,37.194,-15.818,9.979,203.039,23.281206842448928
-2.085,0.610,-5.388,0.008,0.009,1.032,37.072,-16.013,10.083,203.361,23.33953701378003
-2.124,0.607,-4.340,0.008,0.009,1.035,36.975,-16.169,10.165,203.620,23.299940031247466
-2.127,0.618,-3.443,0.008,0.010,1.035,36.975,-16.169,10.165,203.620,23.287431582909736
-2.127,0.618,-3.443,0.008,0.010,1.035,37.107,-16.384,10.321,203.823,23.287431582909736
-2.156,0.629,-2.743,0.008,0.009,1.035,36.943,-16.406,10.356,203.945,23.287009393083714
-2.176,0.616,-2.193,0.007,0.011,1.036,36.811,-16.663,10.204,204.355,23.315425347755376
-2.193,0.626,-1.758,0.007,0.011,1.035,36.616,-16.839,10.173,204.697,23.318988973804387
-2.221,0.652,-1.408,0.007,0.012,1.035,36.400,-16.680,10.327,204.619,23.341009012331916
-2.233,0.639,-1.085,0.007,0.012,1.036,36.467,-16.613,10.271,204.492,23.301117630088974
-2.276,0.670,-0.799,0.006,0.011,1.035,36.521,-16.559,10.226,204.390,23.326711937359583
-2.282,0.685,-0.589,0.006,0.012,1.034,36.473,-16.546,10.160,204.401,23.34718738317607
-2.256,0.690,-0.454,0.007,0.012,1.034,36.556,-16.595,10.107,204.417,23.36356773982926
-2.279,0.728,-0.371,0.007,0.011,1.035,36.592,-16.725,9.975,204.563,23.357502887463493
-2.234,0.776,-0.341,0.007,0.011,1.037,36.380,-16.648,9.929,204.590,23.333481867882558
-2.195,0.743,-0.336,0.008,0.012,1.039,36.181,-16.677,10.102,204.747,23.31426505221781
-2.220,0.715,-0.273,0.007,0.013,1.040,36.232,-16.731,10.151,204.786,23.31806073737433
-2.221,0.665,-0.221,0.007,0.012,1.040,36.273,-16.833,10.310,204.894,23.321097285499548
-2.186,0.652,-0.170,0.006,0.012,1.040,36.305,-16.915,10.437,204.981,23.313941955155563
-2.235,0.643,-0.107,0.006,0.013,1.038,36.451,-16.861,10.419,204.823,23.317802259724534
-2.235,0.643,-0.107,0.006,0.013,1.038,36.451,-16.861,10.419,204.823,23.317802259724534
-2.245,0.651,-0.070,0.006,0.012,1.036,36.388,-16.877,10.224,204.882,23.30172136569139
-2.196,0.652,-0.030,0.007,0.011,1.035,36.218,-16.710,10.009,204.768,23.288856650464872
-2.249,0.652,-0.053,0.006,0.012,1.033,36.141,-16.577,9.896,204.640,23.29773401597198
-2.271,0.642,-0.032,0.006,0.011,1.033,36.110,-16.560,9.896,204.637,23.30483590837767
-2.255,0.623,-0.062,0.005,0.011,1.033,35.965,-16.547,9.896,204.706,23.300932853458058
-2.236,0.634,0.042,0.006,0.010,1.033,36.059,-16.626,9.806,204.753,23.28822584067821
-2.237,0.656,0.058,0.006,0.010,1.033,36.134,-16.690,9.734,204.791,23.258891092766007
-2.232,0.723,0.101,0.007,0.010,1.033,35.955,-16.620,9.856,204.809,23.273761569812887
-2.234,0.728,0.107,0.007,0.009,1.033,35.961,-16.775,9.984,205.008,23.285657951450396
-2.256,0.712,0.044,0.007,0.009,1.033,36.355,-16.629,9.937,204.579,23.28559048791624
-2.287,0.731,0.048,0.007,0.009,1.034,36.281,-16.841,9.929,204.900,23.275951948244757
-2.234,0.670,0.049,0.007,0.009,1.035,36.192,-16.802,10.012,204.902,23.28741025419589
-2.242,0.718,0.100,0.007,0.010,1.035,36.211,-16.860,9.809,204.967,23.24865405473599
-2.239,0.692,0.108,0.007,0.011,1.035,35.926,-16.967,9.886,205.280,23.265571939388877
-2.248,0.673,0.138,0.007,0.010,1.035,35.698,-17.052,9.948,205.532,23.279106247111184
-2.199,0.678,0.162,0.007,0.011,1.034,35.785,-16.970,9.908,205.371,23.289933693289033
-2.199,0.678,0.162,0.007,0.011,1.034,35.785,-16.970,9.908,205.371,23.289933693289033
-2.208,0.646,0.115,0.007,0.010,1.035,35.945,-16.875,9.965,205.148,23.27942651254299
-2.197,0.665,0.154,0.007,0.009,1.035,36.013,-16.858,9.951,205.085,23.280605336790316
-2.179,0.660,0.110,0.007,0.009,1.034,36.128,-16.845,9.940,204.998,23.291132965032336
-2.181,0.688,0.098,0.007,0.010,1.035,36.279,-16.715,9.931,204.737,23.318724205314275
-2.218,0.728,0.054,0.008,0.010,1.036,35.980,-16.911,9.984,205.173,23.28328978447486
-2.287,0.710,0.088,0.008,0.010,1.037,36.011,-16.797,9.997,205.006,23.254942247803328
-2.284,0.715,0.095,0.008,0.009,1.036,36.036,-16.706,10.007,204.872,23.251433356154426
-2.290,0.715,0.108,0.008,0.010,1.036,36.176,-16.694,10.194,204.771,23.258210811679465
-2.253,0.690,0.132,0.007,0.010,1.036,36.138,-16.474,10.375,204.506,23.273217344943657
-2.275,0.672,0.106,0.008,0.010,1.036,36.197,-16.568,10.489,204.594,23.28522257155501
-2.226,0.666,0.112,0.008,0.011,1.036,36.185,-16.523,10.340,204.542,23.25648847746745
-2.256,0.685,0.048,0.008,0.010,1.035,36.205,-16.637,10.191,204.680,23.27183947757404
-2.215,0.690,-0.007,0.008,0.010,1.036,36.131,-16.638,10.222,204.726,23.274535708815158
-2.231,0.694,0.013,0.008,0.010,1.035,36.072,-16.639,10.247,204.763,23.247938987275568
-2.244,0.670,-0.008,0.007,0.010,1.034,36.115,-16.910,10.117,205.090,23.226661610043895
-2.244,0.670,-0.008,0.007,0.010,1.034,36.115,-16.910,10.117,205.090,23.226661610043895
-2.207,0.601,-0.025,0.007,0.010,1.034,36.269,-16.886,10.133,204.966,23.276731690167683
-2.183,0.579,-0.011,0.007,0.010,1.033,36.092,-16.868,9.965,205.049,23.27844947889007
-2.170,0.602,0.020,0.007,0.009,1.033,36.341,-16.943,9.742,204.996,23.28940827871214
-2.192,0.601,0.010,0.007,0.010,1.034,36.240,-16.883,9.802,204.979,23.298175318569797
-2.207,0.630,0.013,0.007,0.010,1.035,36.129,-16.805,9.881,204.945,23.324358088144244
-2.187,0.670,0.007,0.008,0.010,1.035,36.130,-17.073,10.154,205.292,23.31655059727132
-2.166,0.674,-0.017,0.007,0.010,1.036,36.131,-17.287,10.372,205.568,23.31030460457298
-2.171,0.661,-0.002,0.007,0.010,1.035,36.042,-17.068,10.217,205.340,23.266969535037664
-2.138,0.651,0.046,0.008,0.010,1.034,36.001,-16.803,10.363,205.020,23.270639754786053
-2.156,0.663,0.061,0.007,0.010,1.034,36.088,-16.831,10.599,205.004,23.273575930584766
-2.181,0.657,0.063,0.008,0.011,1.033,36.067,-16.764,10.579,204.928,23.304678577756217
-2.232,0.676,0.101,0.007,0.011,1.034,35.901,-16.679,10.532,204.920,23.291222420116735
-2.242,0.683,0.099,0.007,0.010,1.034,36.008,-16.912,10.375,205.159,23.299626631693474
-2.269,0.659,0.125,0.007,0.012,1.035,36.153,-16.738,10.369,204.843,23.325519138643184
-2.252,0.656,0.094,0.008,0.011,1.034,36.270,-16.599,10.364,204.592,23.30789486882631
-2.270,0.674,0.092,0.007,0.011,1.033,36.270,-16.599,10.364,204.592,23.30338002181697
-2.270,0.674,0.092,0.007,0.011,1.033,36.093,-16.698,10.451,204.827,23.30338002181697
-2.280,0.684,0.145,0.007,0.011,1.033,36.041,-16.567,10.310,204.687,23.30935271305366
-2.243,0.701,0.148,0.008,0.010,1.034,36.030,-16.672,10.467,204.832,23.30454629719885
-2.253,0.695,0.091,0.008,0.011,1.032,36.291,-16.786,10.503,204.823,23.310285733359166
-2.277,0.682,0.068,0.007,0.011,1.033,36.200,-16.518,10.291,204.527,23.314877282287416
-2.258,0.686,0.079,0.007,0.011,1.033,36.187,-16.663,10.542,204.725,23.31855052143002
-2.238,0.713,0.095,0.007,0.010,1.034,36.237,-16.719,10.383,204.768,23.283150837367454
-2.239,0.716,0.140,0.007,0.010,1.035,36.276,-16.764,10.256,204.802,23.283584796649887
-2.231,0.714,0.140,0.008,0.011,1.034,36.278,-16.890,10.244,204.965,23.245593688699188
-2.206,0.730,0.121,0.007,0.010,1.034,36.250,-16.960,10.444,205.074,23.253539077715274
-2.184,0.758,0.107,0.008,0.011,1.034,36.347,-16.957,10.484,205.011,23.2694799577723
-2.181,0.759,0.100,0.007,0.010,1.033,36.364,-17.014,10.337,205.074,23.23430981759712
-2.195,0.761,0.077,0.007,0.011,1.033,36.379,-16.940,10.219,204.969,23.206173705456973
-2.201,0.737,0.096,0.007,0.011,1.034,36.510,-16.941,10.184,204.891,23.250756797653985
-2.199,0.707,0.172,0.006,0.011,1.035,36.555,-17.061,10.156,205.020,23.257669564879112
-2.228,0.722,0.122,0.006,0.011,1.036,36.591,-17.157,10.134,205.122,23.215276934438407
-2.228,0.722,0.122,0.006,0.011,1.036,36.591,-17.157,10.134,205.122,23.215276934438407
-2.287,0.687,0.115,0.007,0.011,1.036,36.680,-17.174,10.357,205.090,23.219701105462487
-2.263,0.661,0.128,0.007,0.011,1.036,36.421,-17.158,10.384,205.226,23.261578717658395
-2.271,0.671,0.129,0.007,0.011,1.036,36.484,-16.935,10.377,204.900,23.25674253203848
-2.260,0.706,0.152,0.008,0.010,1.036,36.534,-17.057,10.310,205.027,23.262458152386706
-2.212,0.722,0.184,0.007,0.011,1.035,36.394,-17.214,10.378,205.313,23.27661521750945
-2.209,0.695,0.152,0.007,0.011,1.036,36.253,-17.130,10.161,205.291,23.268771731919323
-2.217,0.686,0.144,0.008,0.010,1.036,36.259,-17.242,10.348,205.433,23.272081512291383
-2.209,0.649,0.073,0.009,0.010,1.036,36.264,-17.332,10.498,205.545,23.265144767744868
-2.245,0.683,0.061,0.009,0.010,1.036,36.388,-17.285,10.377,205.408,23.27876450979598
-2.261,0.679,0.032,0.009,0.010,1.036,36.158,-17.276,10.491,205.539,23.289660303436868
-2.328,0.703,-0.005,0.008,0.011,1.036,36.393,-17.210,10.402,205.309,23.298376938349577
-2.321,0.688,0.024,0.009,0.011,1.038,36.072,-17.126,10.361,205.398,23.286181108591425
-2.315,0.648,0.072,0.008,0.010,1.039,36.174,-17.060,10.268,205.248,23.238086169408255
-2.320,0.622,0.070,0.008,0.011,1.037,36.137,-17.066,10.253,205.280,23.27628676881501
-2.334,0.630,0.056,0.008,0.010,1.037,36.106,-17.072,10.242,205.306,23.249339835275446
-2.307,0.633,0.060,0.008,0.010,1.036,36.022,-17.136,10.173,205.441,23.227782288443798
-2.307,0.633,0.060,0.008,0.010,1.036,36.022,-17.136,10.173,205.441,23.227782288443798
-2.295,0.649,0.074,0.008,0.010,1.036,36.105,-17.037,9.967,205.262,23.2297053886668
-2.306,0.622,0.085,0.007,0.010,1.036,35.991,-17.079,9.743,205.385,23.250413006533524
-2.309,0.671,0.032,0.007,0.010,1.037,35.900,-16.931,9.684,205.250,23.22864082545026
-2.302,0.716,0.045,0.007,0.010,1.036,36.067,-17.054,9.876,205.307,23.201638511739485
-2.337,0.702,0.091,0.007,0.010,1.036,36.111,-17.002,9.880,205.212,23.20879036730335
-2.366,0.727,0.056,0.007,0.011,1.037,36.355,-17.290,10.153,205.435,23.214511851754445
-2.343,0.717,0.092,0.007,0.011,1.036,36.551,-17.520,10.372,205.610,23.25742731469196
-2.312,0.729,0.124,0.006,0.012,1.035,36.408,-17.405,10.366,205.550,23.25342140966533
-2.362,0.745,0.069,0.006,0.012,1.035,36.414,-17.313,10.242,205.428,23.250216685644027
-2.328,0.740,0.060,0.006,0.012,1.035,36.448,-17.149,10.293,205.197,23.247652906426985
-2.355,0.750,0.048,0.007,0.012,1.034,36.235,-17.138,10.334,205.312,23.226432745365027
-2.350,0.722,0.026,0.007,0.012,1.034,36.335,-17.039,10.336,205.123,23.238210323047944
-2.342,0.764,0.025,0.007,0.011,1.034,36.175,-17.020,10.338,205.196,23.238047816350118
-2.301,0.768,0.019,0.006,0.011,1.034,36.137,-17.214,10.130,205.471,23.257086948680175
-2.300,0.764,-0.000,0.007,0.011,1.034,36.107,-17.370,9.963,205.691,23.23397997916758
-2.295,0.759,0.021,0.007,0.010,1.031,36.107,-17.370,9.963,205.691,23.244248110089988
-2.295,0.759,0.021,0.007,0.010,1.031,36.233,-17.404,9.980,205.658,23.244248110089988
-2.274,0.713,0.075,0.007,0.011,1.030,36.183,-17.282,9.963,205.531,23.22370890829543
-2.272,0.666,0.089,0.006,0.010,1.030,36.234,-17.154,9.859,205.335,23.245615822236424
-2.269,0.680,0.038,0.006,0.010,1.031,36.304,-17.262,9.927,205.431,23.25355678454506
-2.275,0.727,0.032,0.007,0.010,1.031,36.390,-17.078,10.131,205.141,23.269494123236132
-2.308,0.707,0.031,0.007,0.010,1.031,36.249,-17.021,10.443,205.153,23.27265942534483
-2.312,0.703,0.042,0.007,0.010,1.032,36.106,-17.126,10.184,205.375,23.28477623587595
-2.335,0.715,0.001,0.007,0.011,1.032,35.992,-17.209,9.976,205.554,23.294469684300843
-2.278,0.686,0.021,0.007,0.010,1.032,35.991,-17.126,9.960,205.447,23.302224443040757
-2.265,0.674,0.070,0.008,0.010,1.033,36.140,-17.029,10.037,205.230,23.308428250032687
-2.253,0.667,0.084,0.008,0.009,1.033,36.289,-16.982,10.009,205.078,23.26546845140543
-2.225,0.687,0.070,0.008,0.010,1.034,36.138,-17.094,10.017,205.315,23.279023456724428
-2.217,0.665,0.082,0.009,0.010,1.035,36.377,-16.764,10.082,204.742,23.280282892135467
-2.249,0.720,0.043,0.009,0.010,1.035,36.389,-16.800,9.955,204.782,23.271705871620135
-2.230,0.706,0.063,0.008,0.010,1.034,36.398,-16.829,9.853,204.813,23.284013392896192
-2.234,0.690,0.057,0.008,0.011,1.034,36.526,-17.031,10.072,204.999,23.274690272228717
-2.234,0.690,0.057,0.008,0.011,1.034,36.526,-17.031,10.072,204.999,23.274690272228717
-2.231,0.680,-0.007,0.008,0.011,1.033,36.448,-17.014,10.127,205.023,23.305570051071378
-2.290,0.672,-0.014,0.008,0.011,1.033,36.685,-16.820,10.110,204.631,23.359027580677992
-2.259,0.678,0.022,0.008,0.010,1.032,36.455,-16.784,10.038,204.722,23.344286191298316
-2.258,0.651,0.018,0.008,0.010,1.034,36.481,-16.726,9.949,204.631,23.361246786327058
-2.310,0.641,0.058,0.009,0.011,1.034,36.502,-16.860,10.059,204.791,23.34606155581757
-2.330,0.659,0.080,0.009,0.011,1.035,36.309,-16.696,10.056,204.695,23.305159664877497
-2.291,0.625,0.050,0.008,0.011,1.035,36.154,-16.566,10.054,204.617,23.301191858657923
-2.304,0.628,0.066,0.008,0.011,1.034,36.420,-16.611,10.142,204.518,23.298017613682262
imu9250 main loop terminated
